time,seconds_elapsed,z,y,x
1666761236398891800,0.012891845703125,-0.6928894715555012,0.033626959791779515,-0.17171470327228305
1666761236418836500,0.03283642578125,-0.2591454417049885,0.0172147541731596,-0.2545519764348864
1666761236438781700,0.05278173828125,-0.2575450207710266,0.06034370180368423,-0.004882219083607197
1666761236458726700,0.0727265625,-0.15854089505299926,0.11622165637016296,0.2614031575039029
1666761236478671600,0.092671630859375,-0.004419277746975422,-0.015621347501873968,0.1885626516933553
1666761236498615800,0.11261572265625,0.25258082249239083,-0.0324859730631113,-0.04171587052878458
1666761236518560800,0.132560791015625,0.07837386401295661,-0.10309797090291976,-0.10671470009535551
1666761236538505500,0.15250537109375,-0.22188465545549987,-0.06868249108195304,-0.08341068913638591
1666761236558450700,0.17245068359375,-0.3458953582666814,-0.09173837249875068,-0.0610971550860675
1666761236578395600,0.192395751953125,-0.17771058268621562,-0.023454525345563887,0.036611829954618584
1666761236598340900,0.2123408203125,0.14474690910875795,0.01721241608560085,0.2281982225164771
1666761236618285600,0.23228564453125,0.09683774146437645,0.012529811227321623,0.18032675653398036
1666761236638230500,0.25223046875,-0.14915727289691566,-0.07030337028205394,-0.10328383973068557
1666761236658175700,0.27217578125,-0.31513387090861794,-0.07128244444727898,0.16559008291214702
1666761236678120700,0.29212060546875,-0.09603738486692309,0.10132511601150035,0.4284431469634175
1666761236698065700,0.312065673828125,-0.07926116824150085,0.07854746701419353,0.43454643227457995
1666761236718011000,0.332010986328125,-0.25549451798200606,0.052823243170976635,0.37888095141500233
1666761236737955800,0.351955810546875,-0.06391293859258294,-0.006816694277524947,0.26350392917543647
1666761236757901000,0.371901123046875,0.1495462722145021,0.1308633451849222,0.5515650842413305
1666761236777845800,0.391845703125,-0.3178033823788166,0.02679799055457115,0.6005062252819537
1666761236797789700,0.411789794921875,-0.36948739238679407,-0.23164836297035216,0.0026388240709900855
1666761236817735000,0.43173486328125,-0.22229002138599752,-0.4262859689295292,0.13587474360615015
1666761236837679900,0.451679931640625,0.16217340633645652,0.14634616099894046,0.9218114783018827
1666761236857625000,0.471625,-0.11871215801164507,-0.022333412361145017,0.9287018223375082
1666761236877569800,0.49156982421875,-0.38772140660509463,-0.05251169300377369,0.781989458374679
1666761236897514800,0.5115146484375,-0.445316832613945,-0.1536468394011259,0.5740437502920627
1666761236917460000,0.5314599609375,-0.083689359947294,-0.06889525704979896,0.4250093731224537
1666761236937405000,0.551405029296875,0.1546001946032047,0.034760347735881804,0.741916098922491
1666761236957350000,0.571349853515625,-0.03164864545613527,-0.12262100201845168,0.47638946828041223
1666761236977294800,0.591294921875,-0.299768982385844,-0.28865619834959505,0.26218933944553136
1666761236997239800,0.61123974609375,-0.1447742355071008,-0.06180325296223163,0.6207230838805436
1666761237017185000,0.63118505859375,0.43216392105221746,-0.21088205379545688,0.682694679147005
1666761237037130000,0.6511298828125,0.796385355734825,-0.31998014189600943,0.16087737517654896
1666761237057075000,0.671074951171875,0.36885333226695655,-0.08382745324373245,0.010975001267064362
1666761237077020000,0.69102001953125,-0.6106032564043998,0.08394143501222133,0.17995353930741548
1666761237096964900,0.71096484375,-1.0389162011168898,0.0535176551759243,0.305702628484834
1666761237116910000,0.73091015625,-0.8346994504295289,-0.05211597168445587,0.3354840004980564
1666761237136854000,0.75085400390625,-0.601697480893135,0.07452186475992202,0.20452187111377715
1666761237156798700,0.770798828125,0.026871348051726817,0.10542612158954143,-0.07383092335369437
1666761237176744000,0.790743896484375,0.3820809165000915,0.15437690724134445,-0.4908884972214699
1666761237196689000,0.81068896484375,0.35361879212558267,0.18510288489460944,-0.6395666082993149
1666761237216634000,0.830634033203125,-0.06035670741572976,0.15163549957871436,-0.5919722422251478
1666761237236578800,0.850578857421875,-0.3804593066476285,0.2293412550717592,-0.5427729617049917
1666761237256523800,0.870523681640625,-0.2936440697647631,0.20025310775339603,-0.7342173611134291
1666761237276469000,0.890468994140625,0.010548428151756524,0.2745762350708246,-0.6678285339266061
1666761237296414000,0.9104140625,0.21671645903736353,0.15819792683422565,-0.8717737011309713
1666761237316359000,0.93035888671875,0.17999065644741058,0.16632687275409697,-0.9587532617300748
1666761237336303900,0.950303955078125,0.13939678025245666,0.14474164841175077,-1.0615864442169665
1666761237356248800,0.970248779296875,0.12508256982639432,0.25342647953629494,-1.0406257815137505
1666761237376194000,0.990194091796875,0.25001623270139095,0.25234979021549225,-1.1525465258195995
1666761237396139000,1.010138916015625,0.36026612118557094,0.26519348969757556,-1.2471958173289894
1666761237416083700,1.030083740234375,0.22130933978557585,0.33538229368925093,-1.4176418158397077
1666761237436029000,1.05002880859375,-0.08867372423112392,0.15959668771624563,-1.5527268703728914
1666761237455974000,1.069973876953125,-0.025106384205818174,0.044233694002032274,-1.4153636417746542
1666761237475917800,1.089917724609375,0.388863123986125,0.00710895522236824,-1.425444306284189
1666761237495863000,1.109863037109375,0.31752573448121546,-0.02724105814695358,-1.3903288615003226
1666761237515807700,1.129807861328125,0.006961801836639642,0.1656248619645834,-1.1991674072191119
1666761237535753000,1.1497529296875,-0.47692777640819545,-0.08990998802781104,-1.3443299113914369
1666761237555698000,1.169697998046875,-0.4795400047332048,-0.017123568758368492,-1.279889880184829
1666761237575643000,1.189642822265625,-0.2383637888304889,-0.050451837864518165,-1.5235352626800536
1666761237595588000,1.209588134765625,-0.34197803869247434,0.07326631174087524,-1.3067434003189204
1666761237615532800,1.22953271484375,-0.3030278380513191,-0.014898293924331665,-1.0387123491078614
1666761237635478000,1.24947802734375,-0.32752032814249393,-0.07125380287468433,-0.9806330120395869
1666761237655423000,1.269423095703125,-0.48618528796657917,0.0008691840499639511,-0.8611544727653264
1666761237675368000,1.289367919921875,-0.28267347067818044,-0.10178279665112495,-1.0537721902694552
1666761237695313000,1.30931298828125,0.06571195083856582,-0.0593558598101139,-1.2146440855532883
1666761237715257900,1.3292578125,0.04390943048372865,0.10937164434492587,-0.7901327250808476
1666761237735202800,1.349202880859375,-0.19867767513021825,0.2230506304949522,-0.5433510173212737
1666761237755148000,1.36914794921875,-0.33236601460799575,0.1567366221100092,-0.43094720220621674
1666761237775092700,1.3890927734375,-0.25186916709169743,-0.029196868389844893,-0.06989562973137944
1666761237795037700,1.40903759765625,-0.11754150679707527,0.09838087925314902,0.20152502738535402
1666761237814982000,1.42898193359375,-0.10142667668983339,-0.03005260843634605,0.014735833371616899
1666761237834926800,1.4489267578125,-0.4183557604521513,0.03226794639825821,-0.19821049600988624
1666761237854871800,1.468871826171875,-0.8151974621020257,0.15885259135067462,0.09175300381230189
1666761237874816800,1.488816650390625,-0.7721278434433042,0.2503741062283516,0.033958639431558545
1666761237894761700,1.50876171875,-0.5790430198840797,0.29208091210126874,0.2526683729116805
1666761237914707000,1.52870703125,-0.17408274757787584,0.11352876402437687,0.4346080993339419
1666761237934652000,1.54865185546875,0.0838601864695549,-0.023159926313161848,0.7999664290919899
1666761237954596900,1.568596923828125,-0.0846567436747253,0.11158639778494835,0.9620175242230296
1666761237974541800,1.588541748046875,-0.24454700751006603,0.045536593294143675,0.9753221192151308
1666761237994486800,1.60848681640625,-0.2827927131436765,0.01296703360080719,1.2602356239050625
1666761238014431700,1.628431640625,-0.45066126238182186,0.04457096313238144,1.5093608991160987
1666761238034377000,1.648376953125,-0.27211232917532324,0.029201544564962385,1.836775282666087
1666761238054321700,1.66832177734375,0.027775457284599542,0.013585457760095596,1.8363637792557477
1666761238074267000,1.688266845703125,0.16273323217630387,-0.0413093309879303,1.9703817890793085
1666761238094211800,1.7082119140625,0.08986030366718768,-0.051069677501916884,2.114336963288486
1666761238114156800,1.72815673828125,-0.05309460745826363,-0.10081015222668648,1.9368167886078356
1666761238134101000,1.74810107421875,0.08952610327675938,0.03617372166514397,1.782731557789445
1666761238154045700,1.768045654296875,0.4219663521647453,0.09332651847302913,1.8347645273655653
1666761238173990700,1.78799072265625,0.6415699109457433,0.04311784171462059,1.8948320425763725
1666761238193936000,1.807935791015625,0.6129859137572348,0.0005973813712596892,1.6463687384054064
1666761238213880800,1.827880859375,0.4831495735324919,0.09588730887174605,1.714712499052286
1666761238233826000,1.847825927734375,0.32075068787708877,0.12339198639094828,1.6642042548254132
1666761238253770800,1.867770751953125,0.04771817511692643,0.17850129467248915,1.7339003068640828
1666761238273715700,1.8877158203125,0.005575315914303064,-0.004299743020534515,1.6858990770220756
1666761238293661000,1.907660888671875,-0.13680968636870383,0.006001286241412163,1.5849474704980848
1666761238313606000,1.92760595703125,-0.1584708985567093,0.15784721370041369,1.5328648165613412
1666761238333550800,1.94755078125,-0.1592271237514913,0.015350129345059393,1.2315487508639693
1666761238353495800,1.967495849609375,-0.3645319619365036,-0.11941899110674857,1.14540249928385
1666761238373440800,1.987440673828125,-0.4419504249207675,-0.16751579027771948,0.9205904120743275
1666761238393386000,2.007385986328125,-0.24209143105149267,0.017684125250577925,0.8967293517544865
1666761238413330700,2.02733056640625,-0.1302658176831901,0.0008697685718536376,0.9162076669454574
1666761238433276000,2.04727587890625,-0.2863514285385608,-0.08810849156379699,0.6089093119680881
1666761238453220900,2.067220947265625,-0.5053073370657861,0.037034137886762616,0.7341150697827339
1666761238473164800,2.087164794921875,-0.5973783025197684,0.22546938207447528,0.7256205054208635
1666761238493110000,2.107110107421875,-0.3932873701691627,0.21356208665966986,0.11884995904713869
1666761238513054700,2.1270546875,0.03952887731194496,0.15373977838158606,-0.03702244744896888
1666761238532999700,2.146999755859375,0.11947174420729278,0.03353577437698841,0.07193768891904037
1666761238552945000,2.16694482421875,-0.16322057730183004,0.12010288171768188,-0.024270814731088466
1666761238572889900,2.186889892578125,-0.32310163491740823,0.06607435441017151,-0.669132310001552
1666761238592835000,2.2068349609375,-0.294885448127985,0.06176584356129169,-0.8104109584778547
1666761238612779800,2.22677978515625,-0.1561710971817374,0.03162438779771328,-0.6204083188429474
1666761238632724700,2.246724853515625,-0.274646377697587,0.13983283358216284,-0.6091416594192385
1666761238652670000,2.266669921875,-0.5076280350983142,-0.05673427913486957,-1.0381634830534459
1666761238672615000,2.286614990234375,-0.5628636001080274,-0.07088730764985084,-1.0811916006579994
1666761238692559600,2.3065595703125,-0.15373963225111364,-0.10324117876589298,-1.119322593870759
1666761238712505000,2.326505126953125,0.12785261906161904,-0.021980945661664007,-1.222826515226066
1666761238732450000,2.346449951171875,-0.090131083432585,0.003963058412075043,-1.3699337237253784
1666761238752395300,2.366395263671875,-0.37910862269103524,-0.08728197761178016,-1.460674317358434
1666761238772339200,2.386339111328125,-0.19737433744668959,-0.05571662652492523,-1.5542001577958464
1666761238792284000,2.406283935546875,0.32094358010068536,0.07218202363550663,-1.521930457831919
1666761238812229000,2.42622900390625,0.47752749586701393,0.044809448063373565,-1.6366218358948825
1666761238832174000,2.446174072265625,0.3139912767447531,0.018466800060868264,-1.7245614006325602
1666761238852119000,2.466119140625,-0.16708265955746174,-0.06418167253136635,-1.8339391824573277
1666761238872064000,2.48606396484375,-0.6373802041709423,-0.06726677906513213,-1.831405864587426
1666761238892009000,2.506009033203125,-0.5168021061569452,0.06758943514823913,-1.833957594896853
1666761238911954000,2.525953857421875,0.053444005417823785,0.0008726911813020706,-2.147189139315486
1666761238931899100,2.545899169921875,-0.0034719138942658897,0.07746259438693523,-2.1152663530930877
1666761238951844000,2.565843994140625,-0.5241255809128285,0.16011925028562546,-2.092578135944903
1666761238971789000,2.5857890625,-0.5982474865697324,0.19747136808037757,-1.9090864856392145
1666761238991734000,2.605734130859375,-0.4536334100604057,0.025898995888233182,-1.7323881487354635
1666761239011679000,2.625678955078125,-0.19688509262502193,-0.023030162453651425,-1.5551412380382417
1666761239031624200,2.645624267578125,-0.025949118640273806,0.1014794297903776,-1.4231106026396154
1666761239051569000,2.66556884765625,0.06772913587987422,0.38502339969277377,-1.4726920874103904
1666761239071514000,2.68551416015625,0.018811667975783347,0.47852293664515017,-1.3830521484956144
1666761239091459000,2.705458984375,-0.10465338365137576,0.2992909896105528,-1.183417172640562
1666761239111403000,2.725403076171875,-0.08680851488113403,0.020708441507816314,-0.7958943573474884
1666761239131348200,2.74534814453125,-0.31322540693879125,0.0017126491367816924,-0.44035424177050586
1666761239151293000,2.76529296875,-0.3309865429483354,0.07392389886677264,-0.2645124851634726
1666761239171238000,2.78523779296875,-0.15757161162942648,-0.10548983447551727,-0.3053272741001099
1666761239191183000,2.80518310546875,-0.24138868960961699,-0.17856150042712687,-0.5629828060409053
1666761239211128000,2.825128173828125,-0.38026656055450436,-0.19308336225450037,-0.17377134354114532
1666761239231073000,2.845072998046875,-0.290760915543884,-0.30922727721333504,-0.13514054758008567
1666761239251018000,2.86501806640625,-0.4020633818209171,-0.3263414936214685,-0.2840492890760302
1666761239270963000,2.884962890625,-0.8912555965185165,-0.22608020744919777,0.07040273900330066
1666761239290908200,2.904908203125,-0.8460380060456693,-0.2663917595714331,0.009252141263522208
1666761239310853000,2.92485302734375,-0.5122691389024258,-0.0729892483651638,0.17109978624433278
1666761239330798000,2.944798095703125,-0.3961193787246942,-0.25007483102083206,0.014407295536994933
1666761239350743000,2.964742919921875,-0.2466867960177362,-0.09724339965581894,0.13658380519095809
1666761239370688000,2.98468798828125,0.257409996214509,-0.10978139418959618,0.32447306940108533
1666761239390633200,3.00463330078125,0.3312748583704233,0.09497779281139374,0.5790735611528158
1666761239410578000,3.024577880859375,-0.10254515932574867,-0.002802197939157486,0.295483980276715
1666761239430521900,3.04452197265625,-0.5187164153456688,0.10899813485741615,0.2774123352795839
1666761239450467000,3.064467041015625,-0.3669628423452377,0.24238369199633597,0.4741738015249371
1666761239470412000,3.084412109375,0.22237200058102607,0.3462894721508026,0.9146373488888144
1666761239490357200,3.104357177734375,0.04824015316441655,0.3739128076136112,1.2135004684761166
1666761239510302000,3.124302001953125,-0.5010984871990979,0.4159960455834865,1.174685000130534
1666761239530247000,3.144246826171875,-0.14398878421783445,0.2564870361506939,1.577509721712768
1666761239550192000,3.164192138671875,0.5186463457841426,0.1388280404537916,1.8869401202827691
1666761239570137000,3.18413720703125,0.6714023738253861,0.185540107268095,1.9625988801181316
1666761239590082000,3.20408203125,0.4964939160130918,0.06418459514081477,1.7343050882726907
1666761239610027000,3.224027099609375,0.0483937362909317,0.23381869274675846,1.9468869317233561
1666761239629972000,3.243971923828125,-0.06103358376398682,0.28837621236443517,2.0483353818535806
1666761239649917200,3.263917236328125,-0.1854670420318842,0.1460743583202362,1.9092516130730508
1666761239669862100,3.283862060546875,-0.191204124379158,0.2638695476174354,1.9363848269313573
1666761239689806800,3.303806884765625,0.11056596869602799,0.31969606425762176,1.869645871132612
1666761239709752000,3.323751953125,0.1797930880486965,0.2660778713166714,1.756358222387731
1666761239729696800,3.34369677734375,0.1768961975634098,0.17491466835737227,1.6988576350554823
1666761239749641700,3.363641845703125,0.27266894014477727,-0.05794716205596923,1.3523442910209298
1666761239769585700,3.383585693359375,0.18218261353373527,-0.24768764362335205,1.3892571406155825
1666761239789531000,3.40353076171875,-0.3875051335059106,-0.17399053924977778,1.4097887642517686
1666761239809475600,3.4234755859375,-0.9007892946697771,-0.18116320735812186,1.049878763027489
1666761239829420800,3.4434208984375,-0.6065268007457256,-0.2460989131271839,1.0883268593654036
1666761239849365800,3.46336572265625,-0.5812883145928383,-0.28201544516086574,1.2234677357390522
1666761239869310700,3.483310791015625,-0.3973480437368154,-0.3676514091312885,0.9646294602870941
1666761239889255700,3.503255615234375,-0.3110324269391596,0.04892798929810524,1.2046589903727174
1666761239909200600,3.52320068359375,-0.10812719724178313,0.2558335406780243,1.5040499332264066
1666761239929145900,3.543145751953125,0.27757731658294793,-0.047207741376757616,1.1581626121357083
1666761239949090800,3.5630908203125,0.4924978321142494,-0.0537310056656599,0.7090496021091938
1666761239969035500,3.583035400390625,0.22148133535161613,0.12331775211095809,0.8872934148892759
1666761239988980700,3.602980712890625,-0.07366320210397242,0.32110826914310453,0.914322876112163
1666761240008925700,3.62292578125,-0.22425401493534444,0.09774199682772158,0.6621098640188574
1666761240028871000,3.642870849609375,-0.3031329058609903,0.09426526062786579,0.42935353980660435
1666761240048815600,3.662815673828125,-0.5713337606810033,0.27908056075274945,0.04151944834096357
1666761240068760600,3.682760498046875,-0.694871439152956,0.2401075637578964,-0.07988222274929285
1666761240088705800,3.702705810546875,-0.4845464347183704,0.2682932092785835,-0.34023645572215316
1666761240108649700,3.722649658203125,0.24692089703455566,0.23109014456570148,-0.5632444161191582
1666761240128594700,3.7425947265625,0.24311449048891662,0.41729719130992887,-0.36836248001009225
1666761240148540000,3.762539794921875,-0.09239303701519966,0.16166706424951552,-0.42950873036831616
1666761240168484600,3.782484619140625,-0.07266410806402564,0.02019756937623024,-0.9321808966249227
1666761240188429600,3.8024296875,-0.19924115423187613,-0.026048048970103262,-1.1891890340402722
1666761240208374800,3.822374755859375,-0.5226302277885377,-0.15926058762967585,-1.348774323579669
1666761240228319700,3.84231982421875,-0.35232772940173746,-0.29542320826649665,-1.415703541253507
1666761240248264700,3.8622646484375,0.37870954037085175,-0.22554829252958297,-1.4481018360331654
1666761240268209700,3.882209716796875,0.5000527775384486,-0.07607610846459865,-1.5835256210014224
1666761240288154600,3.902154541015625,-0.012726356712728738,-0.02028992383480072,-1.390238845129311
1666761240308099800,3.922099853515625,-0.3984346699297428,-0.16259937666356564,-1.7270257449194788
1666761240328044500,3.94204443359375,-0.4076537491738796,-0.08457330317497253,-1.6228209818184376
1666761240347987700,3.96198779296875,-0.3927307591997087,-0.021949381479620934,-1.4640046308249235
1666761240367932700,3.9819326171875,-0.062076078554242846,0.12896306452155112,-1.040225968541205
1666761240387877600,4.001877685546875,0.4462760330349207,0.2410316928654909,-1.271083473394811
1666761240407822600,4.021822509765625,0.46719154142215846,0.012149287477135657,-1.401222011436522
1666761240427767800,4.041767822265625,0.35717166230157016,-0.22309914581179618,-1.710273932082951
1666761240447712800,4.061712646484375,0.1801264116562903,-0.20104981108903883,-2.0004437498658896
1666761240467657700,4.08165771484375,0.15753931679502128,-0.05411562106907367,-2.2253075672626492
1666761240487602700,4.101602783203125,0.02604527249112725,0.029277532410621643,-2.079839358142018
1666761240507547600,4.121547607421875,0.21471827095746993,-0.09981178883910179,-1.595734529711306
1666761240527492900,4.141492919921875,-0.03572948502898216,-0.10515490343272685,-1.689904221010208
1666761240547437600,4.1614375,-0.28797508421763773,-0.11241349625885486,-1.7625298967599867
1666761240567381500,4.181381591796875,-0.5490589466392993,-0.060875616723299025,-1.920664987491071
1666761240587326700,4.20132666015625,-0.7100691544152796,0.09046411477923393,-1.6914423903629183
1666761240607271700,4.221271728515625,-0.31793197719454763,0.1499742883682251,-1.3147630406454205
1666761240627217000,4.241216796875,-0.1576467226922512,0.13930617935955525,-1.1398016105368733
1666761240647161600,4.26116162109375,0.13794716596603393,0.18615151716470718,-0.8393570669770241
1666761240667106600,4.2811064453125,0.0760926212079823,0.20180325980484484,-0.6110352180808782
1666761240687051800,4.3010517578125,-0.3991543625064194,0.19138415712118148,-0.7266495562076568
1666761240706996700,4.320996826171875,-0.7409364402353763,0.42471009791493414,-0.5966784836873412
1666761240726941700,4.340941650390625,-0.714571580401063,0.29459143361747264,-0.5945926173239946
1666761240746886700,4.36088671875,-0.5240701974637806,-0.014544073659181594,-0.9457251455917954
1666761240766831600,4.38083154296875,-0.25734146102294325,0.005557634127140045,-0.948922480328381
1666761240786778600,4.400778564453125,-0.5767325509846211,0.20259937861859798,0.011947627425193785
1666761240806723600,4.4207236328125,-0.6486299124598502,0.06744388919770718,-0.2903822914898395
1666761240826667800,4.440667724609375,-0.20064985198602078,-0.09756547121703624,-0.8750116601388901
1666761240846612700,4.46061279296875,0.08641630069315433,-0.04978723647594452,-0.5225073320612311
1666761240866557700,4.4805576171875,0.062420654208213085,-0.14126608125567436,0.0003054857525974512
1666761240886502700,4.500502685546875,-0.10663315929174423,-0.21597616206407547,0.43587972670495506
1666761240906447600,4.520447509765625,-0.5508369160972535,-0.2961608748912811,0.3230831128800288
1666761240926392600,4.540392578125,-0.8633679110310971,-0.2797065836966038,0.4543673138255253
1666761240946337800,4.560337890625,-0.6697264765024185,-0.243235924911499,0.5058154327183961
1666761240966282500,4.580282470703125,-0.5128068990409373,-0.46017654809355735,0.47233255757242437
1666761240986227700,4.600227783203125,-0.5156663801252842,-0.34211014063954354,0.6474342729344964
1666761241006172700,4.620172607421875,-0.6854458775512874,-0.2519546534180641,0.6960863679006696
1666761241026117600,4.64011767578125,-0.6621018268428742,-0.023602409383654592,0.9681213940560817
1666761241046062600,4.6600625,-0.7427401286564767,0.0704752197176218,1.1763044180259108
1666761241066007600,4.680007568359375,-0.5874187801718711,0.413055900478363,1.4353975450217722
1666761241085952800,4.699952880859375,-0.004280015406757593,0.24446166731417177,1.4609984347462652
1666761241105897700,4.719897705078125,0.6301310367602855,0.3173024471193552,1.7589856482818722
1666761241125842700,4.7398427734375,0.7595980322159827,0.19926234315037727,2.0101570423677564
1666761241145787600,4.75978759765625,0.5482938805509359,0.24859306803047657,2.199921781593561
1666761241165732600,4.779732666015625,0.21059914520084858,0.2317769577860832,2.1288731459021566
1666761241185677800,4.799677734375,-0.3499531822901219,0.29607728826105595,2.050268688003719
1666761241205621800,4.819621826171875,-0.3045603813808411,0.2505067926973104,1.9985566209450363
1666761241225566700,4.839566650390625,0.3275228854257613,0.18310323550999164,1.8335431688770651
1666761241245511700,4.85951171875,0.5963445024926215,0.19888415748775004,1.902570820134878
1666761241265456600,4.87945654296875,0.40319567378647625,0.17963818974792956,1.841902416421473
1666761241285401600,4.899401611328125,0.031335049462318416,0.1924766285330057,1.7435811584010719
1666761241305346800,4.919346923828125,-0.15509718433991074,0.025268881291151044,1.7412939242467282
1666761241325291500,4.93929150390625,0.07634330803342163,-0.09131810126006602,1.4743641122758389
1666761241345236700,4.95923681640625,0.04977788412570953,-0.12040917118787765,1.3886156278416513
1666761241365181700,4.979181640625,-0.1719634173363447,-0.05048983178734779,1.4524980251654982
1666761241385126700,4.999126708984375,-0.49016946223191915,0.04584580537378788,1.7430746701836586
1666761241405071600,5.019071533203125,-0.5382767827969044,-0.0011059154152870177,1.7556547502934932
1666761241425016600,5.0390166015625,-0.6364385394066572,-0.07207388708591461,1.2496315200433135
1666761241444961500,5.05896142578125,-0.9827842717893421,0.01953004537820816,0.9882967516005039
1666761241464906800,5.07890673828125,-1.0030804061692207,-0.028451602980494498,1.2215744693383574
1666761241484851700,5.098851806640625,-0.27887349387332794,-0.2606254511296749,0.7654308300226926
1666761241504796700,5.118796630859375,0.32965639032311733,-0.1027168626308441,0.5017936298564076
1666761241524741600,5.13874169921875,0.39008302116990085,-0.03945055137872696,0.4011714014172554
1666761241544686600,5.1586865234375,0.12152268538773059,0.06257014568150043,0.40256051768809553
1666761241564630800,5.178630859375,-0.30292496219873427,0.11412146922051906,-0.07188187164515257
1666761241584575700,5.19857568359375,-0.05905424651503562,0.057550856214761734,-0.38928310296386476
1666761241604520400,5.2185205078125,0.2880085480958223,-0.11104805312454699,-0.38508857388347384
1666761241624465700,5.238465576171875,-0.026942951983213424,0.08180734559297562,-0.2920812043622136
1666761241644410600,5.25841064453125,-0.3727868723236024,0.26426468441486356,-0.4106494238585233
1666761241664355800,5.27835595703125,-0.2482793259061873,0.05399404051601887,-0.8958484772667288
1666761241684300500,5.298300537109375,0.02503054249063134,-0.1067430494070053,-0.7003004784643649
1666761241704245500,5.31824560546875,-0.3631786476314068,0.1463572669148445,-0.4056102606475353
1666761241724190700,5.338190673828125,-1.1124901175022124,0.11406477059721946,-0.614439181305468
1666761241744135700,5.3581357421875,-1.288077570554614,-0.19179390696585177,-0.6995335857450962
1666761241764080600,5.37808056640625,-0.9003682927787303,-0.2705821969985962,-0.4427089882031083
1666761241784025600,5.398025634765625,-0.5093967983365059,0.07925415397882461,-0.5298039188101887
1666761241803970600,5.417970458984375,-0.24593926558606324,0.01603577352166176,-0.6589744886025786
1666761241823915800,5.437915771484375,-0.13625665559582412,0.05780629228055477,-0.5331961915969848
1666761241843860700,5.45786083984375,0.16442951470017433,-0.10727496432662009,-0.913050956480205
1666761241863805700,5.4778056640625,0.4965385588724166,-0.18779343915283678,-1.3540806132942438
1666761241883750700,5.497750732421875,0.5505624100048094,-0.032818566018342966,-1.6141951922923325
1666761241903695600,5.517695556640625,-0.17565350402593613,-0.1243757367312908,-1.419224993377924
1666761241923640800,5.537640869140625,-0.6520890399377792,-0.19590777202546594,-1.3398513046726583
1666761241943585500,5.55758544921875,-0.6208088624678552,-0.08247253150343895,-1.3286933663204312
1666761241963529500,5.577529541015625,-0.2380686783414334,-0.016691607081890106,-1.5841019595846533
1666761241983474700,5.597474609375,0.051297494908422225,0.021765257084369657,-1.8503604481652378
1666761242003419600,5.617419677734375,0.2466133654553443,0.14269523727595806,-2.2642504613801835
1666761242023364900,5.63736474609375,0.2743336584866047,0.2893605472266674,-2.4123195006489753
1666761242043309600,5.6573095703125,0.06814589998722076,0.24817221226990221,-2.4325600323840972
1666761242063254500,5.677254638671875,0.15955409068353474,0.1978624132245779,-2.3659642844483253
1666761242083199700,5.69719970703125,0.26746735291369256,0.16631868944764136,-2.073755946575105
1666761242103144700,5.717144775390625,0.4641033661484718,0.2875648959815502,-1.8543749445036053
1666761242123089700,5.737089599609375,0.515681577694416,0.3492524136096239,-1.9951836373805998
1666761242143034600,5.75703466796875,0.18859269977174697,0.40544074929952617,-1.9229126202873885
1666761242162979600,5.7769794921875,-0.16119403991028666,0.399575656658411,-1.805040420231223
1666761242182924800,5.7969248046875,-0.3330160029493272,0.38857904634773727,-1.51357354837507
1666761242202869800,5.816869873046875,-0.39610885733067985,0.3441454458594322,-1.4100102980479596
1666761242222814500,5.836814453125,-0.15461597669422625,-0.06578793868422508,-0.9326026291683316
1666761242242759700,5.856759765625,-0.09918766559138893,-0.19608254407048223,-0.48030317112542686
1666761242262704600,5.87670458984375,-0.4520312355607748,-0.09289572584033012,-0.5332005755111575
1666761242282649900,5.89664990234375,-0.9145125534653663,0.17296353428959846,-0.6559788139179349
1666761242302594600,5.916594482421875,-0.840490016529709,-0.004642272847890853,-0.32914142653830347
1666761242322538500,5.93653857421875,-0.15845453194379805,-0.3752256437778473,-0.05879442653506994
1666761242342483700,5.956483642578125,0.2042273451466113,-0.4024894982784986,-0.35870877220835534
1666761242362428700,5.9764287109375,0.22420871448889373,-0.17345219458937644,-0.6302062939535826
1666761242382373600,5.99637353515625,-0.08282266011536121,-0.013451017725467682,-0.4823842882484197
1666761242402318600,6.016318603515625,-0.3508333991907537,-0.2053437088906765,-0.3839884306218475
1666761242422263600,6.036263671875,-0.2643096195351332,-0.2794078930109739,0.09470018144641071
1666761242442208800,6.056208740234375,-0.37889658737555143,-0.21809973008930683,0.33755547300986943
1666761242462153700,6.07615380859375,-0.6019076895777136,-0.06783142721056938,0.1356906922761351
1666761242482098700,6.0960986328125,-0.6406495812304318,-0.016790975803136824,-0.13365914991591124
1666761242502043600,6.116043701171875,-0.3436141154617071,0.029769699841737746,-0.13901801006793976
1666761242521988600,6.135988525390625,-0.18880290845632552,0.21980127331018445,0.4086328233391046
1666761242541933800,6.155933837890625,-0.38757476467601953,0.31585750900804993,0.4988049694344401
1666761242561878800,6.175878662109375,-0.23560141144506633,-0.02549567578434944,0.6284820274442434
1666761242581823500,6.195823486328125,-0.16940730311274527,-0.059871992638707155,0.8365057691991329
1666761242601768700,6.215768798828125,-0.4257832070391625,-0.19381167652904988,1.4982801176533103
1666761242621713700,6.235713623046875,-0.5264508089900016,-0.11467501145005225,1.7735133553281426
1666761242641659000,6.255658935546875,-0.15317513023614882,0.035975568744540214,2.133794235691428
1666761242661603600,6.275603515625,0.3446277494836598,-0.1647609386116266,2.2752041093319653
1666761242681548500,6.295548583984375,0.2561548815868795,-0.17447043172121046,2.4205326177209616
1666761242701493800,6.31549365234375,0.05306918075606227,-0.02886018378138542,2.580477972744405
1666761242721437400,6.3354375,-0.17396657385230063,0.14565817873477935,2.5277000300198793
1666761242741382700,6.355382568359375,-0.579911619412154,0.22835458212196827,2.699049991632998
1666761242761327600,6.37532763671875,-0.5503856651984155,0.22937807995080947,2.366071836476028
1666761242781272600,6.3952724609375,-0.1559258902490139,0.18655834439992905,2.239404189415276
1666761242801217500,6.415217529296875,0.6581524316299706,0.2970347351163626,2.2189584904968735
1666761242821162500,6.43516259765625,1.1450141575533896,0.23861118772029874,2.0857208173960444
1666761242841107700,6.455107666015625,0.7776407616458832,0.18835867182016372,1.9659712791606783
1666761242861052400,6.475052490234375,0.11700623087659477,0.2019014594823122,2.0266469893977046
1666761242880997600,6.49499755859375,-0.014722791226953268,0.03456102577149868,1.890414810656011
1666761242900942600,6.514942626953125,-0.003324760508537292,0.1745171934723854,1.8616253540232777
1666761242920887600,6.534887451171875,0.05874678800106048,0.11061959857940673,1.7901599542245268
1666761242940832500,6.55483251953125,-0.15456293133273719,0.11299977171421051,1.5901605289712548
1666761242960777500,6.574777587890625,-0.36702363262176513,0.10171148498058319,1.631417545250058
1666761242980722400,6.594722412109375,-0.4468582168370485,0.27990298305153843,1.6220362611815333
1666761243000667600,6.614667724609375,-0.44232042727693915,-0.025175357788801193,1.1589943867847323
1666761243020612400,6.6346123046875,-0.49956090236827727,-0.18218845875263212,0.7622039769306779
1666761243040557600,6.6545576171875,-0.61591349164173,-0.16630115379095076,0.5970423485636711
1666761243060502500,6.67450244140625,-0.5768143840491772,0.18716624716520308,0.5844891564607619
1666761243080447500,6.694447509765625,-0.34421617300808427,0.08789046489894389,0.052497664478421205
1666761243100392700,6.714392822265625,-0.14982479689493775,0.04010170876383781,0.00024198292917571962
1666761243120336600,6.734336669921875,-0.2322656180858612,0.22218144644498825,0.3858601427778601
1666761243140281300,6.75428125,-0.4927952076256275,0.4179237987756729,0.47575727132409806
1666761243160226600,6.7742265625,-0.13799378158673642,0.1293693072348833,-0.27194588656723495
1666761243180171500,6.794171630859375,0.3135537621103227,-0.20090660322606563,-0.5798495139613747
1666761243200116700,6.81411669921875,-0.13005962758660317,-0.2577893509209156,-0.2078942701563239
1666761243220061400,6.8340615234375,-0.813032539153099,0.1802946078300476,-0.21421762795895335
1666761243240006400,6.85400634765625,-0.7943241854213178,0.13774609043598174,-0.6117620710507035
1666761243259951600,6.87395166015625,-0.3226869166366756,-0.12325287018120289,-0.7962117527335881
1666761243279896600,6.893896484375,0.1772885578818619,-0.16175883418619633,-1.040324752740562
1666761243299841500,6.913841552734375,0.060710781550407406,0.08206453522443771,-1.0144465073794127
1666761243319786500,6.933786376953125,-0.43740518270656464,-0.1742594193190336,-0.9050143650189042
1666761243339731500,6.9537314453125,-0.5208733011186123,-0.46720717738270756,-1.1636699773803352
1666761243359676700,6.9736767578125,0.18719313517212866,-0.5360334608495235,-1.5143503779664635
1666761243379621600,6.99362158203125,0.7065725444711745,-0.24241525617837906,-1.8123104112342
1666761243399566600,7.013566650390625,0.48603112031817436,-0.1972562640249729,-1.8637796094477175
1666761243419511600,7.033511474609375,-0.19200491936802863,-0.19344167417287825,-1.9245605336248874
1666761243439456500,7.05345654296875,-0.2398186638139188,-0.09931377618908882,-2.028639916780591
1666761243459401700,7.073401611328125,-0.025559973192214966,-0.04790507599115371,-2.027893774588406
1666761243479346400,7.093346435546875,0.03940802741125226,0.18161095112562178,-2.306607547855377
1666761243499291600,7.113291748046875,-0.14010288269519805,0.21818448576331137,-2.47074129447937
1666761243519236600,7.133236572265625,-0.28921207866668697,0.2635363701403141,-2.2795386314049364
1666761243539180500,7.1531806640625,-0.4192857347786426,0.3399643607825041,-2.194327322587371
1666761243559125500,7.17312548828125,-0.41902956806048747,0.29206396096646786,-2.0504066351696846
1666761243579070500,7.193070556640625,-0.17801482632979748,0.3112169897258282,-1.8797361802533268
1666761243599015400,7.213015380859375,-0.05606368639692664,0.28368133254647254,-1.7210314729407428
1666761243618960600,7.232960693359375,-0.2626804839633405,0.3115291244149208,-1.620645391345024
1666761243638905600,7.252905517578125,-0.6642552054844796,0.3357446972608566,-1.5673536538794637
1666761243658850300,7.272850341796875,-0.6734967888213693,0.399644630241394,-1.5900959393024443
1666761243678795500,7.29279541015625,-0.5284918132983147,0.3011503537416458,-1.4524340200185775
1666761243698740500,7.312740478515625,-0.3022806729458272,0.105619013813138,-1.0967249776154755
1666761243718685700,7.332685791015625,-0.24343115522265432,0.1244324353545904,-0.973872504928708
1666761243738630700,7.352630615234375,-0.5322387447416782,0.0778606537938118,-0.8693202435642481
1666761243758575600,7.37257568359375,-0.865967864396423,0.249241302806139,-0.8298421465914696
1666761243778520600,7.3925205078125,-0.8983879326164722,0.11014905845820903,-0.7981079417437315
1666761243798465800,7.4124658203125,-0.5617208598136901,0.060709612506628034,-0.6212389244481921
1666761243818410800,7.43241064453125,-0.14765724359750748,0.022123569002747534,-0.46503392499685287
1666761243838355700,7.452355712890625,0.10966624337732792,0.09982640188634395,-0.4333624831870198
1666761243858300700,7.47230078125,0.07484174436405301,0.16429916631877423,-0.33616080378107727
1666761243878245600,7.49224560546875,0.013924334325641392,-0.02836217113137245,-0.1967621238324791
1666761243898190800,7.51219091796875,-0.006376987686008214,-0.16571838546693324,0.17181878470126538
1666761243918135600,7.532135498046875,-0.42278804381117224,-0.1670271299779415,0.1385606947544962
1666761243938080500,7.55208056640625,-0.608375205091387,-0.07197919453978538,-0.05037884569354355
1666761243958024700,7.572024658203125,-0.38437808752655983,0.15112988814413547,0.19549948348551988
1666761243977969700,7.5919697265625,-0.03866320039331913,0.14743161814808844,0.5310802223563194
1666761243997914600,7.61191455078125,0.6218026958107948,-0.029666823989152907,1.158961361297965
1666761244017859600,7.631859619140625,1.1516368636287748,-0.058442252096533774,1.212528116312623
1666761244037804500,7.651804443359375,0.5708294644206762,-0.23629765008091924,0.522533635546267
1666761244057749800,7.671749755859375,-0.013606500548124312,-0.08432078971862793,1.043491400077939
1666761244077694700,7.69169482421875,-0.6071798578269779,-0.22242811468243598,1.4693202728897332
1666761244097639700,7.7116396484375,-0.6586252367734908,-0.36249943319559097,1.9298086634114384
1666761244117584600,7.731584716796875,-0.35551293530911204,-0.15155015938282013,2.2134552169054746
1666761244137529600,7.751529541015625,-0.03706804015636444,-0.11267886919677257,2.2199936787635086
1666761244157474800,7.771474853515625,0.2809656438469887,-0.22879881875813007,2.411104279640317
1666761244177419800,7.791419677734375,0.261672475964576,-0.20578210030794142,2.613259421622753
1666761244197364500,7.811364501953125,0.09493862984478472,-0.11135083546340464,2.7579461249768733
1666761244217309700,7.831309814453125,0.07686375171095132,-0.0892798734307289,2.8083994241461157
1666761244237254700,7.851254638671875,0.1632803446650505,-0.07306406716704368,2.731420521622896
1666761244257199900,7.871199951171875,0.22670856848061083,-0.11918167521953582,2.449465574477613
1666761244277144600,7.89114453125,0.028179800301790237,-0.024485621958971023,2.293416350109875
1666761244297089500,7.911089599609375,-0.03641805181503296,-0.0010194061756134032,1.949412650808692
1666761244317034800,7.93103466796875,0.10161109334602951,0.06581541121304035,1.7153090036407113
1666761244336977700,7.950977783203125,0.14083733444958924,0.09358663071393966,1.698453438168764
1666761244356922600,7.970922607421875,0.04820668928623199,0.10151625466942786,1.6275734370425343
1666761244376867800,7.990867919921875,-0.06768398156389593,0.19466741657555103,1.6884908470809459
1666761244396812800,8.010812744140624,-0.11804697210118174,0.03325520386993885,1.3404223825588821
1666761244416757500,8.030757568359375,-0.32587504515349863,-0.05081014978289604,1.0631161380022764
1666761244436702700,8.05070263671875,-0.6316178412519395,-0.09564005611240864,1.208148878315091
1666761244456647700,8.070647705078125,-0.6377056367330253,0.00984860931932926,1.5130553697198628
1666761244476593000,8.090593017578126,-0.39506256314814087,0.07459785260558129,1.441256207922101
1666761244496537600,8.11053759765625,-0.16714286531209946,0.03815408182740211,1.0478969415605068
1666761244516481500,8.1304814453125,-0.22983517606854437,0.19197744683921336,1.174584462365508
1666761244536426800,8.1504267578125,-0.4444096546411514,0.35305940467715263,1.1831547223120926
1666761244556371700,8.170371826171875,-0.4190997106872499,0.21626783848702907,0.8316171203747391
1666761244576316700,8.190316650390624,0.019783727878332137,-0.10646715507507323,0.17800386654436587
1666761244596261600,8.21026171875,0.3280934518553316,0.09824936182796955,0.2577501879543066
1666761244616206600,8.23020654296875,0.2519827104687691,0.1981844847857952,0.39778438932746646
1666761244636151600,8.250151611328125,0.26741116574704643,0.07028992627859115,0.15689181267172098
1666761244656096800,8.2700966796875,0.34202260848656296,-0.046052141600847245,0.021577050169045105
1666761244676041700,8.290041748046875,0.1343034026362002,0.16422259395122527,0.026011233224207533
1666761244695986700,8.309986572265625,-0.49374067178219555,0.405053211286664,0.025188491265010087
1666761244715931600,8.329931640625,-0.8752046254277229,0.276690450745821,-0.3621843758970499
1666761244735876600,8.349876708984375,-0.5916115556865931,0.053529930135607716,-0.7376110952049494
1666761244755821600,8.369821533203124,-0.09290960823521018,-0.019476269364356993,-0.6487921172842382
1666761244775766500,8.3897666015625,0.10180164748206734,0.04160626810789108,-0.6530825079545378
1666761244795711500,8.40971142578125,0.16112462793588636,0.12054653383195399,-0.8252306342080235
1666761244815656700,8.42965673828125,-0.0219464588701725,-0.12160042679905891,-1.0944459267675877
1666761244835601700,8.4496015625,-0.3819958685651421,-0.24524258855879305,-1.2916650736525654
1666761244855546400,8.46954638671875,-0.39505379531979556,-0.1399047297745943,-1.623819929727912
1666761244875491600,8.48949169921875,0.05706701822057366,-0.2242138290554285,-2.0226371692344545
1666761244895436500,8.5094365234375,0.37785818423852324,-0.2880494646281004,-2.029791571033746
1666761244915381800,8.5293818359375,0.14487097387984393,-0.22388708131909368,-1.898393242189288
1666761244935326500,8.549326416015624,-0.27064634827598927,-0.1327197867065668,-1.7733686861604452
1666761244955271400,8.569271484375,-0.23897300677001476,-0.09416764547228812,-1.6180860622510314
1666761244975215600,8.589215576171876,-0.17800328202247617,0.1078933884859085,-1.7390367929697035
1666761244995160600,8.60916064453125,-0.16124474718421697,0.0748585493683815,-1.4943237812429666
1666761245015105500,8.62910546875,-0.13883666215166449,-0.028056466183066366,-1.5595932490110396
1666761245035050800,8.64905078125,-0.09357581705898046,0.03749707922339439,-1.692030419383943
1666761245054995500,8.668995361328125,-0.2419578677996993,0.156487031263113,-1.8137492118656635
1666761245074940700,8.688940673828125,-0.3603893091738224,0.12103577865362167,-1.4145900270536542
1666761245094885600,8.7088857421875,-0.4442698077790439,0.13700316311419009,-1.5966989908292888
1666761245114830600,8.72883056640625,-0.6342343073606491,0.08196282841563224,-1.5791221253454684
1666761245134775600,8.748775634765625,-0.6802734433494508,0.1729272939324379,-1.5300740167990325
1666761245154720500,8.768720458984374,-0.5053237036786973,0.14516893391311167,-1.673342962309718
1666761245174665700,8.788665771484375,-0.3208136701107025,0.1522960093140602,-1.5614645958408713
1666761245194610700,8.808610595703126,-0.13350742995291948,-0.058979427713155744,-1.3367550922229885
1666761245214555400,8.828555419921875,0.04436170429587364,-0.006100070440769195,-1.1219324841082094
1666761245234500600,8.84850048828125,-0.024376900887489318,0.07991349467039108,-1.275783613909781
1666761245254445600,8.868445556640625,-0.3431738243483007,0.43117607905864713,-1.3990291775673627
1666761245274390800,8.888390869140625,-0.5702209771335125,0.2837134812504053,-1.0645590302869676
1666761245294335500,8.90833544921875,-0.26555808522626756,-0.2027080996900797,-0.6642313131522387
1666761245314280400,8.928280517578125,0.004172609509527683,0.08666063084304332,-0.6508322448097169
1666761245334225700,8.9482255859375,-0.05189151527881622,0.32459552673697467,-0.7387433141052723
1666761245354170600,8.968170654296875,-0.3255776696421206,0.3756862470269203,-0.6457725502673536
1666761245374115600,8.988115478515626,-0.5092961144410073,0.2779518489837646,-0.581506596986018
1666761245394060500,9.008060546875,-0.3959294091105461,-0.3461643844664097,-0.45636458858996626
1666761245414005500,9.028005615234376,0.11179930988326668,-0.0935807854950428,-0.4425174842189997
1666761245433950700,9.04795068359375,0.19863120563998818,0.04433656985461712,-0.4763563697284087
1666761245453894700,9.067894775390625,0.012976532081514596,0.2596756030589342,-0.33447566370572895
1666761245473839600,9.087839599609374,0.17511004479900003,0.07769406505525112,-0.026376239744853227
1666761245493784600,9.10778466796875,0.38518838099613784,0.018267478096485136,0.11955987914847209
1666761245513729500,9.1277294921875,0.4290669779501855,0.0958943231344223,0.6108925947397947
1666761245533674500,9.147674560546875,-0.0716167909681797,0.2392676058024168,0.7462398073405027
1666761245553619700,9.16761962890625,-0.21124898741170764,0.19967969177961348,0.7588800932049751
1666761245573564400,9.187564453125,0.031738369566202164,0.2787245869219303,1.4512705291971564
1666761245593509600,9.207509521484376,0.07571282811015843,0.07539514046311378,1.9608418073177336
1666761245613454600,9.22745458984375,-0.3601775661192834,-0.07412029822170733,2.0540368083655833
1666761245633399600,9.247399658203125,-0.3953390420019626,-0.062331076228618616,2.243456679676473
1666761245653344500,9.267344482421874,-0.11246785679459571,0.12577215952575205,2.589314482411742
1666761245673289500,9.28728955078125,0.20498145144954322,0.10490414354205131,2.6006094911471007
1666761245693234700,9.307234619140624,0.3574175998866558,-0.007811550533771514,2.7108190476208924
1666761245713179600,9.3271796875,0.31490093893557786,-0.03571428745985031,2.6731699927061796
1666761245733124900,9.347124755859374,0.1417667242541909,-0.10076163690984248,2.816054322813451
1666761245753069800,9.36706982421875,0.28985242239683867,-0.04799509236216545,2.6555978033974763
1666761245773015000,9.38701513671875,0.6261902632452547,-0.00820785637497902,2.4561080812320113
1666761245792960000,9.4069599609375,0.6835296686664223,-0.043295536369085307,2.3344138386696573
1666761245812905000,9.426905029296876,0.6905424700379371,-0.06202069510519504,1.9884964147016404
1666761245832850000,9.446849853515625,0.6142328450784087,0.15366905123293398,1.8214532103717327
1666761245852795000,9.466794921875,0.5410622487969696,0.06505787084400654,1.7715192589014768
1666761245872740000,9.486739990234375,0.4423639741577208,0.12488836242854594,1.6745000233903526
1666761245892685000,9.50668505859375,0.047966450789570805,0.14400164369940757,1.7319263764426112
1666761245912629800,9.526629638671874,-0.3584694470271468,0.03474924181997776,1.4053653948515652
1666761245932575000,9.546574951171875,-0.4115487107858062,0.10819266369342803,1.531742534533143
1666761245952519000,9.566518798828126,-0.2647510066270828,0.2538204472899437,1.542095293982327
1666761245972463900,9.5864638671875,-0.14703414326310157,0.0495440753698349,1.0008213021308183
1666761245992409000,9.6064091796875,-0.17827596148401498,-0.1608534097790718,0.6578755874499678
1666761246012353800,9.626353759765625,-0.35681992625445125,-0.01183072304725647,0.7532540700167417
1666761246032298800,9.646298828125,-0.4250035279035568,-0.11817688209116459,0.9127844144985079
1666761246052244000,9.666243896484374,-0.47693245258331296,-0.2777437591910362,0.6550131837561726
1666761246072189000,9.68618896484375,-0.4381453335493803,-0.0301332724571228,0.49823038441687817
1666761246092134000,9.7061337890625,-0.3222691296160221,0.29847207444310186,0.6194473648563027
1666761246112078800,9.726078857421875,-0.16840309450626373,0.20755787780880927,0.6580763707190752
1666761246132023800,9.74602392578125,0.07064078554287552,-0.10141980855762958,0.03836363292485475
1666761246151969000,9.765968994140625,-0.18885726899206637,-0.18922376421689985,-0.03917261122018099
1666761246171914000,9.7859140625,-0.7118214049100875,-0.06614975773394108,-0.010276771603524684
1666761246191859000,9.80585888671875,-1.0007048361442983,0.30363515629470345,-0.2090121682703495
1666761246211804000,9.825803955078126,-0.6158318047076463,0.1121463697552681,-0.8636512580171227
1666761246231748900,9.845748779296875,-0.0973579659461975,0.044182840597629544,-0.5206906380280852
1666761246251694000,9.865694091796875,0.1621171461045742,0.34682547872364516,-0.3250222277164459
1666761246271638800,9.885638671875,0.14017331758290527,0.44826691459119317,-0.40204409259855745
1666761246291584000,9.905583984375,-0.010917992116510868,0.1481307063281536,-0.7358312260508537
1666761246311529000,9.925529052734374,-0.1303717622756958,-0.21922201211750506,-0.6728162592113017
1666761246331474000,9.945473876953125,-0.03731616969853639,-0.2506464934289455,-0.9791238495856522
1666761246351419000,9.9654189453125,0.1397219205535948,-0.17799919036924838,-0.9534297286197543
1666761246371363800,9.98536376953125,0.13772446312606335,-0.2521978145241737,-1.118184822012484
1666761246391309000,10.00530908203125,0.017677110987901687,-0.16862053664922713,-1.418374221767485
1666761246411253000,10.0252529296875,-0.06703413935303687,-0.13272621644735336,-1.960727241027355
1666761246431198000,10.045197998046875,-0.22928923262357712,-0.11346855826973914,-1.9078662961944937
1666761246451143000,10.065142822265624,-0.2544903093755245,-0.11353753185272217,-1.8184619196012615
1666761246471087900,10.085087890625,-0.09940832260474562,-0.05034662392437458,-1.8454054561063646
1666761246491032800,10.10503271484375,-0.06198942318409681,0.13291326345205307,-1.7831766712084411
1666761246510978000,10.12497802734375,-0.0007246610127389431,0.18427461737692355,-1.8343708518728612
1666761246530923000,10.144923095703126,-0.09899959567338228,0.150940503051877,-1.7178008204564452
1666761246550868000,10.164867919921875,0.019636428362131118,0.09806173030138016,-1.4712541635617613
1666761246570813000,10.18481298828125,0.03165843619778752,0.1027127709776163,-1.55490216858536
1666761246590758000,10.2047578125,0.18243980316519737,0.06892915931940079,-1.5144479931220411
1666761246610703000,10.224703125,-0.00677957713752985,0.04412205032110214,-1.7930179740041494
