time,seconds_elapsed,z,y,x
1666761178349240600,0.022240478515625,-1.0796364801704883,0.03219546568393707,-0.0835009977683425
1666761178369185800,0.042185791015625,-0.6581891834437846,0.13616905037760735,-0.34852263803035016
1666761178389130500,0.062130615234375,-0.2769099387153983,0.42573301122188567,0.08548371428446844
1666761178409075500,0.082075439453125,-0.10155015693902969,0.31078561257123943,0.5649906752645969
1666761178429020700,0.102020751953125,0.0160948102325201,0.18360066363811492,0.44666269426494837
1666761178448965600,0.121965576171875,-0.12369623003453016,-0.02968319060206413,-0.17463524862779303
1666761178468910300,0.141910400390625,-0.1800920709952712,0.18924071535170078,-0.2503752570058219
1666761178488855600,0.16185546875,0.018114625622332094,0.052156303694844246,-0.33557284782528873
1666761178508800500,0.181800537109375,-0.6851327199488878,-0.24919863270819187,-0.31806933983862395
1666761178528745700,0.201745849609375,-0.5074152691304683,0.14854805495738982,-0.16680676522552967
1666761178548690400,0.2216904296875,0.07542845821082592,0.0129448217689991,-0.09102116414010525
1666761178568635400,0.241635498046875,-0.039210897403955454,-0.2165583458662033,0.061200610893964766
1666761178588580600,0.26158056640625,-0.16000804499611257,-0.26426994511187074,-0.10457095693177543
1666761178608525600,0.281525634765625,0.24698650961667298,0.15178981335759162,-0.34607319905161854
1666761178628470800,0.301470703125,-0.03302607128918171,-0.007169160977005958,0.2792746220201254
1666761178648415500,0.32141552734375,0.4493127703823149,-0.10915946289896965,0.6796247701823711
1666761178668361000,0.34136083984375,0.4123571045592427,-0.5565992790162563,-0.355052332060039
1666761178688306000,0.361305908203125,-0.27416736200898884,-0.2991483662694692,-0.13847761044777
1666761178708251000,0.3812509765625,-0.01566036433801055,-0.2787842081546783,-0.18224954129010437
1666761178728195800,0.40119580078125,0.12750234431922436,-0.2709545374423265,-0.12364128497689962
1666761178748140800,0.421140869140625,0.1305319212734699,-0.06353285323381423,0.12400193498283624
1666761178768086800,0.441086669921875,-0.48561260264515876,0.03013034984767437,0.06714286042451859
1666761178788031700,0.46103173828125,-0.5200467871665955,0.11460486882328987,-0.12801087836325167
1666761178807977000,0.48097705078125,-0.2287127479098737,0.06000292554199695,-0.07006955695960204
1666761178827922000,0.500921875,0.3284372968569398,-0.19140753799676893,-0.11109627618044614
1666761178847867100,0.5208671875,0.8441516077771782,-0.25374913561940193,0.10511281785666941
1666761178867811800,0.540811767578125,0.32757775741815565,-0.57574587803483,-0.04038461735844612
1666761178887756800,0.5607568359375,-0.5811927452638745,-0.7709890486717224,-0.04275281236108858
1666761178907702000,0.580701904296875,-0.8547054427564144,-1.106119997948408,-0.21601327920407057
1666761178927647000,0.60064697265625,-0.2672539293587208,-1.6477268750160932,0.246262871517241
1666761178947591700,0.620591796875,-0.1549254810348153,-2.135872211009264,0.31111089900285005
1666761178967537000,0.640536865234375,0.2809868327654898,-2.553254157993197,-0.183969789211452
1666761178987481900,0.66048193359375,-0.39493163024485106,-2.660537890148163,-0.5695329948693514
1666761179007427000,0.680427001953125,-1.5672912561677395,-2.4782190830141304,-0.19535072266459463
1666761179027371800,0.700371826171875,-2.018486040904373,-2.4695003545075656,0.7883969873294234
1666761179047316700,0.720316650390625,-1.735087763082981,-2.129387525165081,-0.3199915400728583
1666761179067262000,0.740261962890625,-0.8468798636972904,-1.8625322397351265,-0.39742110897302624
1666761179087207000,0.76020703125,-0.569141949725151,-1.7645242854475973,0.09085779027193784
1666761179107152000,0.78015185546875,-0.3401088838197291,-1.2747767749547958,0.03502921867198311
1666761179127096800,0.800096923828125,0.3999544268429279,-1.05818569586277,0.052831134216487406
1666761179147041800,0.820041748046875,0.028762057169154285,-0.8304092058897018,-0.18667729460448027
1666761179166987000,0.839987060546875,-0.3166781777411699,-0.17744857074916362,-0.2900567127972841
1666761179186932000,0.859931884765625,-0.28993688580989835,0.2509872696906328,-0.2976856002405286
1666761179206877000,0.879876953125,-0.18199907366037368,0.9175427149415015,0.17267594951987267
1666761179226822000,0.89982177734375,-0.3807622351169586,1.1165163042783737,0.059498190890252586
1666761179246766800,0.919766845703125,-0.5319523290157318,1.5102280373394488,0.11504413702338934
1666761179266712000,0.939712158203125,-0.49644846943616866,1.7439660660654306,-0.1076125257179141
1666761179286656800,0.95965673828125,-0.3994972576599568,2.235131626662612,-0.2831485408440232
1666761179306602000,0.97960205078125,-0.26848851265497503,2.4695284115582705,-0.10396102660619654
1666761179326547000,0.999546875,-0.11957681201696395,2.6245301726996897,0.11293488978445529
1666761179346492000,1.019491943359375,-0.17909977202229202,2.7802842135131356,0.32649756096601484
1666761179366436900,1.039436767578125,-0.22289456315040587,2.4710540136903525,0.2176426339715719
1666761179386382800,1.0593828125,-0.4175626373130828,2.4078297880142925,-0.003725459397071972
1666761179406328000,1.079328125,-0.4506663769483566,2.2999685482323167,-0.1402010823726654
1666761179426272800,1.099272705078125,-0.3061282882846892,2.400563011881709,-0.1596440522556193
1666761179446218000,1.119218017578125,-0.058412441480159755,2.518085813978314,-0.4259565908446908
1666761179466163000,1.139162841796875,0.32143202120475467,2.563646957191825,-0.33028204794079064
1666761179486108000,1.15910791015625,0.10172076426558196,2.477291446775198,-0.06932663877096493
1666761179506052900,1.179052978515625,-0.10018003762960434,2.2544459834635258,-0.30089813254624603
1666761179525997800,1.198997802734375,0.07164828208498657,2.2816513857752083,-0.25156039340347053
1666761179545942800,1.21894287109375,0.5203496425706893,2.191245723184943,-0.2665402281314134
1666761179565888000,1.238887939453125,0.4071685229402035,2.298233687263727,-0.06156009642269927
1666761179585833000,1.2588330078125,0.2282745026230812,2.103631152617931,-0.2771832026988268
1666761179605778000,1.27877783203125,-0.03797185712829232,2.247179791852832,-0.009148370361793785
1666761179625723000,1.298722900390625,-0.0035352614540606737,2.209220940336585,0.08091184892482124
1666761179645667800,1.318667724609375,0.13278824883289633,2.1990239559710023,0.06275924764596857
1666761179665613000,1.338613037109375,-0.16438158390522004,1.8934037633389234,0.1189256546318531
1666761179685558000,1.35855810546875,-0.7523276028215885,1.277954235947132,0.17640753726363181
1666761179705503000,1.3785029296875,0.5783002386927605,0.635405689227581,-0.52659372459203
1666761179725448200,1.3984482421875,1.335659405940771,0.38511633867323397,0.002718894436722621
1666761179745393200,1.41839306640625,0.52427518198397,-0.21728899822831152,0.47491263719350096
1666761179765338000,1.438338134765625,-0.524961374149844,-1.3000830656468867,0.1452016580057796
1666761179785283000,1.458282958984375,-0.8603788122177124,-1.6123112782418727,-0.09048398852348327
1666761179805228000,1.47822802734375,-0.6701519353728741,-1.5897154155522584,-0.06328327152007258
1666761179825173200,1.49817333984375,-0.6633468584679066,-1.4979799656629562,0.3062126055672765
1666761179845118000,1.518117919921875,-0.8299404193341732,-2.0299767183423043,0.3057186845704913
1666761179865063000,1.53806298828125,-0.48861879872381686,-2.3813784189403058,0.08624415899664163
1666761179885008100,1.558008056640625,0.016776947277784348,-2.6812030770361424,0.024726444977521893
1666761179904953000,1.577953125,-0.19505729267597197,-3.0259862362772223,-0.21930852135717868
1666761179924898000,1.59789794921875,-0.6327361777573823,-3.0567326721966266,-0.18910364496856927
1666761179944843000,1.617843017578125,-0.6310358035802841,-2.834679820567369,-0.017976678456366062
1666761179964788000,1.6377880859375,-0.3404066977225244,-2.3521266054928303,0.35450814218074084
1666761179984733200,1.657733154296875,-0.8045417741835117,-2.043810013383627,0.2997293810278177
1666761180004679000,1.677678955078125,-0.7713111202329397,-1.9359902746558189,-0.03931932621449232
1666761180024624000,1.6976240234375,-0.15644728377461434,-1.8920868355214595,0.005581599524617195
1666761180044569000,1.717569091796875,0.29332594372630116,-1.7768214569628238,0.09374035997092724
1666761180064514000,1.73751416015625,-0.015276917978376148,-1.529694954353571,0.43800621733963485
1666761180084459000,1.757458984375,-0.42450566138401624,-1.6418810715973375,0.3871899300768971
1666761180104404000,1.777404052734375,-0.6320468803189695,-2.3589409616827965,-0.3244888514921069
1666761180124349200,1.79734912109375,-0.6365360084317624,-2.7793723593652246,-0.32863515751659866
1666761180144294100,1.817294189453125,-0.2524373223684728,-2.623351192048192,-0.010047940416866913
1666761180164239000,1.837239013671875,0.2631096691608429,-2.3010826469540593,0.2393918167039752
1666761180184184000,1.85718408203125,-0.09505261161327362,-1.7898691545844077,0.4308060767024755
1666761180204129000,1.87712890625,-0.48465742081217467,-1.5596563773751257,0.12267507029324769
1666761180224074200,1.89707421875,-0.22285591164045035,-1.0138222380012274,-0.11832359708547592
1666761180244019000,1.91701904296875,-0.2676139948427677,-0.8010147691011429,-0.30590923870652914
1666761180263964200,1.936964111328125,0.24622699648626148,-0.29930443361401554,-0.33309126014262436
1666761180283909000,1.9569091796875,0.0760487090010196,-0.45708150468766684,-0.03826309972640592
1666761180303854000,1.97685400390625,-0.23449264648556709,-0.06626724663376808,0.3625923721760511
1666761180323799000,1.996799072265625,-0.45320433446075764,0.33909693029820914,0.09827800340056418
1666761180343744000,2.016743896484375,-0.8200888874053954,0.6223065536797047,-0.06255787528839428
1666761180363689200,2.036689208984375,-0.7267652915418148,0.579599046331644,-0.30395839689970017
1666761180383634200,2.05663427734375,-0.5385387216687202,0.8016782014459372,-0.28979747733920813
1666761180403579000,2.076578857421875,-0.11479075591736472,1.1810749934285878,-0.41425241678655145
1666761180423524000,2.096524169921875,-0.1442962427318096,1.4244997189104556,0.07213204701393842
1666761180443469000,2.116468994140625,-1.0364742147922514,1.4456079733908176,0.3630506373375654
1666761180463414000,2.1364140625,-1.2002864743769168,1.496855930069089,0.1304582715153694
1666761180483359000,2.15635888671875,-0.7190168693721294,1.596113007634878,0.02764056059224531
1666761180503304000,2.176303955078125,-0.5086486468503252,1.671256219163537,-0.3879121068716049
1666761180523249200,2.196249267578125,-0.0027636560270562767,1.917051180908084,-0.25494915905892845
1666761180543194000,2.216194091796875,0.09270502557381988,2.0413778178006408,-0.1081897776165977
1666761180563139000,2.23613916015625,-0.27263971405029297,2.1700527130305765,-0.05974719721525907
1666761180583084000,2.256083984375,-0.33432562424317,2.2017121721416713,-0.21316786317769437
1666761180603029000,2.276029052734375,0.02147416518330574,2.233547572341561,-0.3405181952729821
1666761180622974200,2.29597412109375,0.4771942453246563,2.139788507670164,-0.37172117932084947
1666761180642919200,2.315919189453125,0.5709094708543271,2.0076462285906076,-0.2564955299844034
1666761180662864100,2.335864013671875,0.18768062642812727,1.7861504263222217,-0.0036520927667617795
1666761180682810000,2.35581005859375,-0.31373160289525986,1.8925269805043934,0.025740882717072963
1666761180702755300,2.37575537109375,-0.3495067536968738,1.9126877250015735,-0.029786979770101606
1666761180722700000,2.395699951171875,0.2156861661415547,2.075608004182577,-0.35066783336549995
1666761180742645200,2.415645263671875,0.4029015862107277,1.902730979132652,-0.45185850934237237
1666761180762590200,2.435590087890625,0.2638063827207312,1.76711196385324,-0.18825961362617089
1666761180782535200,2.45553515625,0.055149640291929244,1.5804232710719108,0.12740560594648123
1666761180802480000,2.475480224609375,-0.2194389062711969,1.5668033265203236,0.014931301144789903
1666761180822425000,2.495425048828125,-0.4443746198603883,1.5671125385999678,-0.2736088696097024
1666761180842370000,2.5153701171875,-0.03094457057369873,1.5451900451272724,-0.17856323572648689
1666761180862315300,2.535315185546875,-0.3219862210214138,1.3408055366575717,0.3453329020783305
1666761180882260000,2.555260009765625,-0.3706500064253807,1.145462412777543,0.25839376482116055
1666761180902205200,2.575205078125,-0.004792504106694832,0.9483224686086177,-0.39404841766953463
1666761180922150100,2.595150146484375,0.29438454940114167,1.0831827744752167,-0.4257306731343269
1666761180942095000,2.61509521484375,0.45288525857422496,0.52932607216537,-0.10606501314812339
1666761180962040000,2.6350400390625,-0.07650054442174732,0.3221446264535188,0.5944356731966137
1666761180981985000,2.654985107421875,-0.5679741480547934,-0.2616705762684345,0.4724266655966639
1666761181001930200,2.67493017578125,-0.2137386122703552,-0.26880992662906644,-0.3931847865775227
1666761181021875200,2.694875244140625,0.6641372781932353,-0.3538058391302824,-0.744780840703845
1666761181041820200,2.714820068359375,0.02444996612370014,-0.7046399689733982,-0.2597808169990778
1666761181061765000,2.73476513671875,-0.4747052049878984,-0.7743067949175835,0.214124962973129
1666761181081710000,2.7547099609375,-0.21958383116722105,-0.7266910572618246,0.5612824683964253
1666761181101655300,2.7746552734375,0.024649288088083265,-0.9599497780382633,-0.4710784658581018
1666761181121600300,2.794600341796875,-0.07640460976660252,-1.3014192826867104,-0.4830445057228207
1666761181141545000,2.814544921875,0.19897242029309273,-1.8683131612241266,-0.24962942534089086
1666761181161490200,2.834490234375,-0.1616020361892879,-1.9182272389501331,0.7310743869125843
1666761181181435100,2.85443505859375,-0.13406214122623206,-1.8280723362505436,0.8957873947292566
1666761181201380400,2.87438037109375,-0.8695135741792619,-1.88246268260777,0.16881662547690793
1666761181221325000,2.894324951171875,-1.1972376082003116,-1.5747300278663634,-0.18083704414367674
1666761181241270000,2.91427001953125,-0.635806671243906,-1.7541770789563655,-0.20696634165644645
1666761181261215200,2.93421533203125,-0.132794020986557,-1.935281249603629,0.3270236306667328
1666761181281160200,2.95416015625,0.0714729985833168,-2.0881682105481625,0.7214975802719593
1666761181301105200,2.974105224609375,0.07193710896372794,-2.4137761291980744,0.49927141790241
1666761181321050000,2.994050048828125,-0.2560311090767383,-2.4769921715676784,-0.5112859730839729
1666761181340995000,3.0139951171875,-1.0253902184590697,-2.273258235961199,-0.23292643834846094
1666761181360941000,3.033941162109375,-1.2558124006353317,-1.9611954430609941,0.2278583047713153
1666761181380885200,3.05388525390625,-0.852249866297841,-1.7606845611542463,0.5069134570881724
1666761181400831200,3.073831298828125,-0.3880931625269353,-1.919808955183625,0.4748898408398032
1666761181420776200,3.093776123046875,-0.23351561814695596,-1.9862065501987933,0.018875663989549502
1666761181440721200,3.11372119140625,-0.2672656197965145,-1.8915724562585352,-0.09243629163503646
1666761181460666000,3.133666015625,-0.2006802471242845,-1.5681857207894325,0.12639233725070953
1666761181480611000,3.153611083984375,-0.060702452113479376,-1.461931916204095,0.18643588706403968
1666761181500556300,3.173556396484375,-0.27978271767273544,-1.3545534915030002,0.1435448398426175
1666761181520501200,3.193501220703125,-0.10600538278222084,-1.4212579605102538,-0.44684886448681355
1666761181540446000,3.213446044921875,-0.1255335284642875,-1.3645944085240362,-0.4169792114019394
1666761181560391200,3.23339111328125,-0.013182137656211852,-1.1794044298678636,-0.42568566494882104
1666761181580336000,3.253336181640625,0.5424095717526972,-1.0813158115595578,-0.35214024400562044
1666761181600281300,3.27328125,0.34677002220936115,-0.8824123648494482,0.4205991554647684
1666761181620226000,3.29322607421875,-0.8646073896981775,-0.521297079488635,0.28932781400084495
1666761181640171000,3.3131708984375,-1.0391442377191036,-0.32008827844560145,-0.13751929594278334
1666761181660116000,3.333115966796875,-0.35561025820374487,-0.07901625356972217,-0.3206327605858445
1666761181680061200,3.353061279296875,-0.21839717866592107,-0.21934651528000831,-0.2350873975083232
1666761181700006000,3.373005859375,-0.9134709354579448,0.003441664886474609,-0.01713877546065487
1666761181719950800,3.392950927734375,-1.3054524837255477,0.6357096406102181,-0.033867791943484916
1666761181739896000,3.41289599609375,-0.5896235967397689,1.0458084448486566,0.0788438104791101
1666761181759841000,3.432841064453125,-0.13611761245131493,1.3248551033318041,-0.10049567945003508
1666761181779786000,3.452785888671875,-0.4710848955988884,1.2550029839485883,-0.40259705030620097
1666761181799731000,3.47273095703125,-0.8837176022291183,1.6023405038475989,0.16996055308133362
1666761181819676000,3.492676025390625,-0.4942133307952434,1.7855647353887556,0.13173719627684913
1666761181839621000,3.51262109375,0.3341700683552772,1.927250503361225,0.0011430416884366421
1666761181859566000,3.532566162109375,0.4118634027581662,2.06355457829535,-0.18950316568017006
1666761181879511000,3.552510986328125,0.09868125043921172,2.1482944702088833,-0.5601598941072822
1666761181899456000,3.5724560546875,-0.8814777143478393,2.3048650881022215,-0.06746317842006683
1666761181919401000,3.59240087890625,-0.53070612834692,2.50518833848238,-0.2391547930777073
1666761181939346200,3.61234619140625,0.32512145030722023,2.6780390600472685,-0.05302901314245537
1666761181959291000,3.632290771484375,0.42417102260217066,2.868258265042305,-0.14186260411040857
1666761181979236000,3.652236083984375,-0.05827807451076805,2.8939737210571765,-0.18465428261058403
1666761181999181000,3.67218115234375,-0.6770762547433375,3.025485301017761,-0.13106734332442282
1666761182019126000,3.6921259765625,-0.7821616000711917,3.0844600525557992,-0.05526099171191454
1666761182039072000,3.712072021484375,-0.08381218260936439,2.989990793788433,0.0197703021411784
1666761182059017000,3.732016845703125,0.5787046547751873,2.6462369775950907,0.06651272756112739
1666761182078962200,3.751962158203125,0.34491935284137726,2.1723978148519993,-0.36423224833756684
1666761182098907000,3.771906982421875,0.08407295243740082,2.0610089854657647,-0.38880817892849445
1666761182118852000,3.79185205078125,-0.26878073706720024,1.960291187697649,-0.3329503903672099
1666761182138797000,3.811797119140625,-0.08153850205633789,1.710085423773527,0.04481177701777778
1666761182158742000,3.831741943359375,0.06350947235822678,1.3803414282321929,0.0984434230953455
1666761182178687000,3.85168701171875,0.2857400003756396,1.2816314631551504,-0.06907412988119759
1666761182198632000,3.8716318359375,-0.004261164575815201,1.460527310103178,-0.1872770140632987
1666761182218577000,3.891576904296875,-0.19734160422086713,0.7722527849972247,-0.2820317752411589
1666761182238522000,3.911522216796875,-0.5188847576498985,0.3208177617639303,0.4847787821695208
1666761182258467000,3.931467041015625,-0.2802864476774819,-0.055817748811841005,0.2457163618166931
1666761182278412000,3.951412109375,-0.043076925182342525,0.005149637848138809,0.2960080224171281
1666761182298357000,3.97135693359375,0.24759298760984091,0.009376900154352188,-0.31346418413072824
1666761182318302000,3.991302001953125,-0.27463004761729387,0.08858136977255344,0.2437149588664062
1666761182338247200,4.0112470703125,0.5486895653376356,0.1047124203622341,0.2131596250723116
1666761182358191900,4.03119189453125,0.33196525178737935,0.08990998802781104,0.9777981539398432
1666761182378137000,4.05113720703125,-1.1418003100734204,-0.4749620292931795,0.20271715977936983
1666761182398082000,4.07108203125,-1.813282909528166,-1.2988041317522525,-1.0364698308780789
1666761182418027000,4.091027099609375,-0.5801601873457432,-1.6918109314143657,-0.3539852873504162
1666761182437972000,4.110971923828125,0.7763555441409349,-1.9413292975962162,0.36536797436922785
1666761182457917000,4.1309169921875,-0.034370910026878115,-1.9003361929506062,0.6605871844962239
1666761182477862100,4.150862060546875,-1.3518518313288688,-1.7736100937008856,0.05054068519175052
1666761182497807000,4.17080712890625,-1.1602806272029875,-1.964507928609848,-0.1667556195601821
1666761182517751800,4.190751708984375,-0.687985771292448,-2.058217308920622,0.17099515682607888
1666761182537697000,4.210697021484375,-0.2693903568655252,-1.909133831912279,0.4641206095442176
1666761182557642000,4.23064208984375,0.2526587100341916,-2.1218167976498603,0.10235095192790031
1666761182577587200,4.250587158203125,0.1944856302678585,-2.591142282360792,-0.11789660384505986
1666761182597532200,4.2705322265625,-0.6664636753141879,-2.7735248023808,-0.047696109415590764
1666761182617476900,4.290476806640625,-0.6212006382644176,-2.8844541975617406,0.0586456657141447
1666761182637422000,4.310422119140625,-0.2663327228605747,-3.116410019046068,-0.0788037798628211
1666761182657367000,4.330366943359375,-0.38189737662672996,-3.337349940997362,-0.044804187366366384
1666761182677313500,4.3503134765625,-0.65499009514153,-3.1651287495076654,-0.4798357728093862
1666761182697258500,4.370258544921875,-0.6681707714930176,-2.8459236836373805,-0.23154665616154668
1666761182717203700,4.39020361328125,-0.8563356743067503,-2.5749276451408862,0.3723468734711408
1666761182737149400,4.4101494140625,-0.7608962553329766,-2.876388964527845,0.38867461567670103
1666761182757094700,4.4300947265625,0.1153099483527243,-2.7012106767982242,-0.1473947932690382
1666761182777039600,4.45003955078125,0.5076140065729617,-2.484351886680722,-1.0829422437176108
1666761182796984300,4.469984375,0.35772505840063096,-1.9332155492454766,-0.5181371541529893
1666761182816929500,4.489929443359375,-0.40166115769557653,-1.3029735263913869,0.40465807448923585
1666761182836874500,4.50987451171875,-0.3548621432501822,-0.8667910173475741,0.42191462197750806
1666761182856820500,4.529820556640625,0.13613986081574111,-0.45489422377645966,-0.13070844688415525
1666761182876765400,4.549765380859375,0.9023032063640654,-0.5521791244864463,-1.217627193017304
1666761182896710700,4.569710693359375,0.11225099917352199,-0.10336685097217559,0.22431758169084787
1666761182916655600,4.589655517578125,-1.3165291735351086,0.610343728685379,0.667480158880353
1666761182936600300,4.609600341796875,-0.9228513427436351,0.9955728800833225,0.4237687254115939
1666761182956545500,4.629545654296875,0.3939946416556835,1.0802151568412781,-0.1134656356602907
1666761182976490500,4.649490478515625,0.8269348077774047,1.113921611610055,-0.5053241420701146
1666761182996435700,4.669435791015625,0.21903204250335692,1.398001003563404,0.11538169841468333
1666761183016380700,4.689380615234375,-0.8548398827910423,1.711448528820276,0.3168675628334284
1666761183036325400,4.709325439453125,-1.5485761804342268,1.8232383402228354,-0.28836072253435846
1666761183056270600,4.7292705078125,-1.4985738399028776,2.2947113583564756,-0.22356150262653826
1666761183076215600,4.749215576171875,-0.8128103477697819,2.5143051263958216,-0.10841156714111566
1666761183096160500,4.769160400390625,-0.05480119218043983,2.829025155806541,-0.22136545388698575
1666761183116105500,4.78910546875,-0.49588148320317266,3.0075358028292656,0.36658787155300376
1666761183136050400,4.809050537109375,-1.203496814725548,2.9915894611567255,0.3601861878171563
1666761183155995600,4.82899560546875,-0.7585059991955757,3.255059780323505,-0.09668371994644404
1666761183175940600,4.848940673828125,-0.20630115574598312,3.256947786027193,-0.2585316937208175
1666761183195885300,4.86888525390625,0.2921357110284269,3.0902859822303057,-0.12826222277581692
1666761183215830500,4.88883056640625,0.32402138011083004,2.94590732191205,-0.04282412403163034
1666761183235775500,4.908775390625,-0.015677023211866616,2.7703350664287805,-0.258139187271893
1666761183255720700,4.928720703125,-0.059766194176673886,2.7174481103718278,-0.23627076207399367
1666761183275665400,4.94866552734375,-0.11451375647373496,2.4781442642122506,-0.32169045294523235
1666761183295610400,4.9686103515625,-0.07345350487604736,2.106051073241234,-0.6258554783329368
1666761183315555600,4.9885556640625,0.2169675842542201,1.96321730427742,-0.3140402304530144
1666761183335500500,5.00850048828125,-0.3128105059949681,1.9831255353182553,0.5922016305342316
1666761183355445500,5.028445556640625,-0.6092565179705619,1.8148235630989074,0.5048401579454541
1666761183375391500,5.0483916015625,-0.22839842126369475,1.4557541043519973,0.1642538658723235
1666761183395336700,5.068336669921875,-0.5527215973326937,1.136971063286066,0.13063833165685645
1666761183415281400,5.088281494140625,0.437021297955513,0.8794558531314134,0.18809795679105445
1666761183435226400,5.108226318359375,0.693638682487607,-0.0388823961019516,-0.1683808644081466
1666761183455171600,5.128171630859375,0.28521630529509856,-0.29588088890612124,-0.3189586898937821
1666761183475116500,5.148116455078125,-0.5117337533840909,-0.6664987466275691,-0.6056567399129271
1666761183495061800,5.168061767578125,-1.1713584129910914,-0.6963426807492971,-0.0822191412642598
1666761183515006500,5.18800634765625,-0.9775357036113739,-0.9602046295821666,-0.028237083446979522
1666761183534951400,5.207951416015625,-0.6581050122916698,-1.117841415402293,-0.13216098378002641
1666761183554896600,5.227896728515625,-0.6085293727397918,-0.8445137190878391,-0.5433016982868314
1666761183574841600,5.247841552734375,-0.1295163875553757,-0.5736334159255028,-0.252074188144505
1666761183594786600,5.26778662109375,0.09153978118672966,-0.5434276627540588,0.2157049439072609
1666761183614731500,5.2877314453125,-0.8276958552777767,-0.6545709929466247,0.18469167374521492
1666761183634676500,5.307676513671875,-1.451612182241678,-0.5725333457291126,0.5023512637391686
1666761183654621700,5.32762158203125,-0.3334416810154915,-1.073667342633009,0.7571779654622077
1666761183674565600,5.347565673828125,0.7618190692663193,-1.6256722795963285,0.2738485053181648
1666761183694510300,5.36751025390625,0.9993255106151103,-1.590139193922281,0.21940876686125993
1666761183714455600,5.38745556640625,0.41481136584356426,-1.8883739524781702,0.10335896905981935
1666761183734400500,5.407400390625,-0.12591536738872527,-2.378500233155489,-0.36332448584288357
1666761183754345700,5.427345703125,-0.9658242230296135,-2.4724434222221374,-0.019394144038856028
1666761183774290700,5.447290771484375,-1.2324958224557339,-2.6349726562589404,-0.2754778418193571
1666761183794235400,5.4672353515625,-0.7054372568309306,-2.9795442185759544,-0.21648177349865436
1666761183814180600,5.4871806640625,-0.09982552510350942,-3.214787391167879,-0.35867574672158803
1666761183834125600,5.50712548828125,0.3588111000716686,-3.182363961946964,-0.20260873096883295
1666761183854070800,5.52707080078125,-0.04353855134472251,-2.7644454238682985,0.06235301406579092
1666761183874015500,5.547015380859375,-1.0277150081448256,-2.3246897325128315,0.10658175789806991
1666761183893960400,5.56696044921875,-0.7868599870204925,-2.232107894927263,-0.19553806193023918
1666761183913906700,5.58690673828125,-0.7805820757947862,-2.1753701086610553,-0.3269514056807384
1666761183933851400,5.606851318359375,-0.3857024679981172,-1.9728700987637042,-0.047871721710823475
1666761183953796600,5.626796630859375,0.4723731818437576,-1.849089989838004,-0.18754735543727874
1666761183973741600,5.646741455078125,0.7876924923218787,-1.7305448589563368,-0.054488235507439815
1666761183993686800,5.666686767578125,-0.05737257703840732,-1.5328420202076434,0.17685469650924204
1666761184013631500,5.686631591796875,-0.8041631501294672,-1.1134136620879174,0.2786956165557727
1666761184033576400,5.706576416015625,-0.7124011044941843,-0.7137222700953483,0.19171211043391376
1666761184053521700,5.726521728515625,-0.48737668970823284,-0.4947773213535547,-0.22736352525800466
1666761184073466600,5.746466552734375,-0.07476034969091415,-0.28104046264886856,-0.40863779177516696
1666761184093411600,5.76641162109375,0.146087802323699,-0.38065877474248405,-0.1901595837622881
1666761184113356500,5.7863564453125,-0.05308507244493812,-0.5759475380867719,-0.15137624585432932
1666761184133301500,5.806301513671875,0.18604160878313705,-0.4417980108380317,-0.2985749685619958
1666761184153246700,5.826246826171875,-0.06062895761900581,0.05016834474802017,-0.39673984871059653
1666761184173191400,5.84619140625,-0.14367898761630057,0.3052045975685119,-0.42521600161045786
1666761184193136400,5.866136474609375,-0.4384942931175232,0.5572188722193241,-0.2938210337668657
1666761184213081600,5.88608154296875,-0.5478840576410293,0.7865998747795819,-0.12174423745023086
1666761184233026600,5.906026611328125,-0.5592775583148002,1.2768003897368907,0.3201803406432271
1666761184252971800,5.9259716796875,-0.5122025399396196,1.552472018828988,0.5076578091820702
1666761184272916500,5.94591650390625,-0.5733949309945107,1.811422814744711,0.32067046224772927
1666761184292861400,5.965861328125,-0.5091209040045738,2.166143430632353,0.03339168973118067
1666761184312806700,5.985806640625,-0.6990086120229214,2.7506138823926447,-0.26267620964702215
1666761184332751600,6.005751708984375,-0.6380137528341263,3.211515822151303,-0.5705555793827399
1666761184352696600,6.025696533203125,-0.5181272172808646,3.510104216450453,-0.4286787092849612
1666761184372641500,6.0456416015625,0.11493329706005752,3.6206244463086126,-0.3150573350736871
1666761184392586500,6.06558642578125,0.09512282730527222,3.874396962803602,-0.3581622442414984
1666761184412531700,6.08553173828125,-0.10024550408124923,3.987794793924689,0.18942863913923502
1666761184432476400,6.105476318359375,-0.09034479924850165,3.484211650303006,-0.007945369513891637
1666761184452421600,6.125421630859375,0.3787362822473049,2.9007939224660393,-0.13450140942633151
1666761184472366600,6.14536669921875,0.5711374343913048,2.7129092978984115,-0.2731316257530823
1666761184492312600,6.1653125,0.6957447148561478,2.473718264463544,-0.3646525195762515
1666761184512257500,6.185257568359375,0.34949732828140256,2.298541145777702,-0.19261048404574393
1666761184532202500,6.205202392578125,-0.12008655163738875,1.8078350193858146,-0.2320762512599118
1666761184552147700,6.225147705078125,-0.11396072570085525,1.9612731844723224,-0.04211567893475294
1666761184572092400,6.245092529296875,0.08215106273042037,2.033798322457075,0.07074530536327511
1666761184592037600,6.26503759765625,0.09061258333921432,1.8072060738325118,-0.21174422358274458
1666761184611982600,6.284982666015625,-0.488260486805439,1.603919881993532,-0.10749182194769381
1666761184631927600,6.304927490234375,-0.7738368393182754,1.4140601579606533,-0.3398281671822071
1666761184651872500,6.32487255859375,-0.3776507520329207,1.2733826902478933,0.0010968507594196126
1666761184671818500,6.344818603515625,-0.7432324422180652,0.999492099353671,0.062137599483132355
1666761184691763500,6.364763427734375,-0.19794534226767718,0.1945376527160406,0.01543109019335825
1666761184711708400,6.38470849609375,0.6785107445258647,-0.3996715182483196,0.15894319224357603
1666761184731653400,6.4046533203125,0.3528688505411148,-0.58038990444839,-0.4203784984514117
1666761184751598300,6.424598388671875,-0.5591324507556855,-0.7959662535399198,-0.38557518835663795
1666761184771543600,6.44454345703125,-1.0633774192869663,-1.0895067167997359,-0.21931758144646882
1666761184791488500,6.464488525390625,-0.7660157903037965,-1.2174936297655106,0.3205237472534179
1666761184811433200,6.48443310546875,-0.4657714454911649,-1.7120114234000443,0.39007016168832775
1666761184831378400,6.50437841796875,-0.5832819726280868,-2.306727374842763,-0.2178366769726388
1666761184851323400,6.524323486328125,-0.8114730347514152,-2.678423090928793,-0.8303007770791649
1666761184871268600,6.5442685546875,-1.1117217634782195,-2.513981885790825,-0.8273346207499503
1666761184891213300,6.56421337890625,-0.7837772185742855,-1.9954998637229202,0.32407530225515363
1666761184911158300,6.584158203125,-0.7364785840436816,-1.7591653887629508,0.9967050989836453
1666761184931103500,6.604103515625,-0.5826043656274676,-1.9386697229981422,0.8645394390285015
1666761184951048400,6.62404833984375,0.14436550857573746,-2.6187024894595146,0.02076251891576685
1666761184970993400,6.643993408203125,-0.17200170352011918,-2.9178520247727633,-0.5883095915317536
1666761184990938400,6.6639384765625,-0.211066470451653,-2.5986779385626315,0.019495576853025703
1666761185010883300,6.68388330078125,-0.8455027301251887,-2.516338678050041,0.6515761950448155
1666761185030828500,6.70382861328125,-1.0891440209671854,-2.5285832425951957,0.6084183135807514
1666761185050773500,6.7237734375,-0.6671937431544065,-2.5741771190345286,0.18058043903410434
1666761185070719500,6.743719482421875,-0.17332827594876288,-2.4553332974672317,-0.3832236567944288
1666761185090664400,6.76366455078125,0.09163461986333131,-2.2223814506828785,-0.3618991292148828
1666761185110609400,6.783609375,-0.3334615547597408,-1.9612673392534254,0.24547727409750222
1666761185130554400,6.803554443359375,-0.9411553534582257,-1.759153698325157,0.5842907112792134
1666761185150499300,6.823499267578125,-0.7859685911387204,-1.5828724177896976,0.3330523894369602
1666761185170444500,6.843444580078125,-0.1293476799249649,-1.4316186110049485,-0.024759178203344345
1666761185190389500,6.863389404296875,0.06668517978489398,-1.3169342472046612,-0.03785509888082742
1666761185210334200,6.883334228515625,-0.1831901831410825,-1.3573773167520762,0.05673575870590284
1666761185230279400,6.903279541015625,-0.5077553147397935,-1.1783137120217084,-0.45078708071857687
1666761185250224400,6.923224365234375,-0.9638977850116789,-0.7744330516457557,-0.5947478444183245
1666761185270169600,6.943169677734375,-0.8933218813985586,-0.7202712533473968,-0.6562240208506583
1666761185290114300,6.9631142578125,-0.45816710796728727,-0.5356938536316156,-0.5287912711689249
1666761185310059300,6.983059326171875,0.5558136815965176,-0.4000128790318966,-0.3328738179996609
1666761185330004500,7.00300439453125,0.7942110073704272,-0.19050912785232066,0.26266019009398295
1666761185349949400,7.022949462890625,0.6344540875911713,0.32978958824872967,0.1267702306523919
1666761185369894400,7.042894287109375,0.0235498024135828,0.4907306763112545,0.03555763559341431
1666761185389839400,7.06283935546875,-1.1933996374726294,0.3254530203491449,0.21576953357607126
1666761185409784300,7.082784423828125,-1.310907242000103,0.3540127598792314,0.12658961338847874
1666761185429729500,7.1027294921875,-0.490707295435667,0.5653460645735263,0.00884790784418583
1666761185449674200,7.12267431640625,-0.2683808875620365,0.8676111015588045,-0.1063730470508337
1666761185469619500,7.142619384765625,-0.6073603289604187,1.010780970609188,0.08640314895063639
1666761185489564400,7.162564453125,-0.9487725504636764,1.3060346675276755,0.22384558026492593
1666761185509509400,7.18250927734375,-0.9432815518319606,1.630132766136527,0.2487938512995839
1666761185529454600,7.20245458984375,-0.5942682442078366,1.8496242428451775,0.045756368958088565
1666761185549399300,7.2223994140625,-0.012055179452896117,2.2252444388985633,0.15975421636551618
1666761185569344300,7.24234423828125,0.15342990871481596,2.352561489778757,0.00020691618237178772
1666761185589289500,7.26228955078125,-0.11081018924806266,2.5645143876761196,-0.026576169064012355
1666761185609235200,7.282235107421875,-0.3715969684192911,2.7845418709576126,-0.10509323637336491
1666761185629180400,7.302180419921875,0.09555292581822722,3.099012894043326,-0.22822978669852018
1666761185649125400,7.32212548828125,0.250710790836811,2.9916444062143563,-0.4538645884677768
1666761185669070000,7.342070068359375,0.185095797566697,2.9146412460327147,-0.09930764784240163
1666761185689014800,7.362014892578125,0.5238895071346312,2.764166606926918,-0.18777765706181526
1666761185708960000,7.3819599609375,0.6789549080967903,2.725493469661474,0.01727700575441122
1666761185728905000,7.401905029296875,0.4886650490183383,2.528690794622898,-0.10374005906558595
1666761185748850200,7.42185009765625,0.8013654822349547,2.025903769814968,-0.3851002643212676
1666761185768795100,7.441795166015625,0.730569359999895,1.4844026912093162,-0.5765288451060653
1666761185788739800,7.46173974609375,0.37752515289187427,1.4210323350608347,-0.08486322603225707
1666761185808685000,7.48168505859375,0.015611410629749297,1.4117325917959211,0.058062312868237494
1666761185828630000,7.501630126953125,0.12057402462707832,1.337809861972928,0.053147945080697534
1666761185848575200,7.5215751953125,0.1320587655145675,1.1669038447350264,-0.001055637399619445
1666761185868520000,7.54152001953125,0.17374796266555786,1.0463245776772498,-0.4789133972674608
1666761185888465000,7.56146484375,-0.4891045364141464,0.9840437703311443,-0.22683979364484547
1666761185908410000,7.58141015625,-0.7536655734270811,0.821824332895875,0.3067936203256249
1666761185928355000,7.60135498046875,-0.9946866718333214,0.6060737962812185,0.44174744969457386
1666761185948300000,7.621300048828125,-0.19341347099170086,0.2321609886676073,-0.200543870860897
1666761185968245000,7.641244873046875,0.5921358718216418,0.38217151739299293,-0.5577712454050779
1666761185988190000,7.66118994140625,-0.08884148201346397,0.6891694281190633,0.5057365222632885
1666761186008135200,7.68113525390625,-1.3195523207485675,1.2275614347934722,0.8213269047677516
1666761186028079900,7.701079833984375,0.07827639498785138,0.9594967735737562,-0.2870256380056962
1666761186048025000,7.721025146484375,0.9815678817369043,-0.05147182856202125,-1.1478966541871427
1666761186067970000,7.740969970703125,0.5057527427457272,-0.4483107537329197,-0.3280959726059809
1666761186087915000,7.7609150390625,0.1864366177164018,-1.339999480971694,-0.3941682811895385
1666761186107860000,7.78085986328125,-0.5965411210432648,-1.6828630703270435,-0.4886144513422623
1666761186127805000,7.800804931640625,-1.7315391306906938,-2.3006085997015235,-0.36425621373504397
1666761186147751200,7.820751220703125,-2.2264988228738307,-2.7348867364287375,-0.17760872974693775
1666761186167696000,7.84069580078125,-1.6400982798337935,-3.139709061568975,0.043808746588230134
1666761186187641000,7.86064111328125,-1.2390016972184181,-3.2252152616798875,0.38984044458568096
1666761186207586000,7.8805859375,-0.7439663094505667,-3.1981057209581136,0.14982582894139923
1666761186227531000,7.900531005859375,-0.1985632549703121,-3.1654736174225806,0.3579325636714697
1666761186247476200,7.920476318359375,-0.5685878229737281,-2.8782255323052404,0.4977706579506397
1666761186267421000,7.9404208984375,-0.8586369369864463,-2.58247440725863,0.3929910175710916
1666761186287366000,7.960365966796875,-1.0491185923099517,-2.3490058431237935,-0.021173428671061992
1666761186307311000,7.98031103515625,-0.3216626881554723,-2.1204040082424878,-0.43654462035447356
1666761186327256000,8.000256103515625,0.29616525880545375,-1.91845695605278,-0.3441486607298255
1666761186347201000,8.020200927734376,0.1555424438893795,-1.6324819596111773,0.06342442442327738
1666761186367146000,8.04014599609375,-0.21893296604305504,-1.3501146322727202,0.46774552204310893
1666761186387091000,8.060091064453125,-0.3572945580288768,-1.4296084402263163,0.4251762541219592
1666761186407036200,8.0800361328125,-0.27844401641488076,-1.415589851745963,0.10122340920269489
1666761186426980900,8.09998095703125,-0.07037804295346141,-1.5384867480963467,-0.23627046981304883
1666761186446926000,8.119926025390624,0.2211306222178042,-1.4213427161842584,-0.12223403939432465
1666761186466871000,8.13987109375,0.0715709059998393,-1.1923474980711937,0.43457799645662304
1666761186486816000,8.15981591796875,-0.5200020712420345,-0.8948755405813456,0.6104732002839446
1666761186506761000,8.179760986328125,-0.5970153144262731,-0.7372557058960199,0.15101183298872783
1666761186526706000,8.199705810546876,-0.5583458304226399,-0.5445207186877727,-0.42974633851647376
1666761186546651100,8.219651123046875,-0.22564517703279852,-0.5057540579199791,-0.7361901224911213
1666761186566596000,8.23959619140625,-0.4181001782558858,-0.18285189109742642,-0.12984977509505113
1666761186586541000,8.259541015625,-0.46830417883917685,0.015868600261211393,0.1380278391199652
1666761186606486000,8.279486083984375,-0.3189016990095377,0.24697101978659627,0.29588235021084547
1666761186626431000,8.299430908203124,-0.3119873165111989,0.123099725446105,-0.09085837479382752
1666761186646376200,8.319376220703125,-0.015452420675754546,0.08953940114974974,-0.28949206465184685
1666761186666322200,8.339322265625,-0.31546763290762897,0.3526630988359451,0.3297662073731422
1666761186686267100,8.35926708984375,-0.7027110467374325,0.7119646127730608,0.39863779128640886
1666761186706212000,8.379212158203124,-0.7443827812969684,1.0085668016910552,0.17660335209667682
1666761186726157300,8.3991572265625,-0.6041506461989135,1.1458347532212734,-0.22150252427011727
1666761186746102000,8.41910205078125,-0.1926853028476238,1.2129676767736672,-0.47972851304262876
1666761186766047200,8.439047119140625,0.4207645751595497,1.3699743479967117,-0.3469222170963883
1666761186785992200,8.4589921875,-0.06391921306974255,1.6840969960361718,0.08624211317002772
1666761186805937200,8.478937255859375,-0.4954688107490539,2.083066503494978,0.19640607693642376
1666761186825882000,8.498882080078126,-0.7811094606697558,2.086434518623352,-0.00006516505754552781
1666761186845827000,8.5188271484375,-0.5500315910637379,2.0953736118823287,-0.4435542068555951
1666761186865772300,8.538772216796875,-0.07867430826425552,2.0647242065966127,-0.6082227910086512
1666761186885717200,8.55871728515625,0.28216625180840493,2.20771930360198,-0.29009149184972044
1666761186905662000,8.578661865234375,-0.1660077603349462,2.3839053070694205,0.18953557011242955
1666761186925607200,8.598607177734374,-0.2131166809797287,2.406875848290324,0.2053600755035877
1666761186945552100,8.61855224609375,0.15134557672142981,2.4641899731397627,0.05932575693279504
1666761186965497300,8.638497314453126,0.6513491082906723,2.3710353041023016,-0.1347276467971038
1666761186985442000,8.658442138671875,0.8105307854652404,2.109059022885561,-0.5553574622616172
1666761187005387000,8.678386962890626,0.7323480601102114,1.7708336147248744,-0.2705667437011376
1666761187025332200,8.698332275390625,0.22629414246082305,1.6417425399094818,0.19037585686147213
1666761187045277200,8.718277099609375,0.16828385204076765,1.5172838010698555,0.1335197049126029
1666761187065222100,8.73822216796875,0.006558372134901583,1.3630536088228224,-0.12285247268676758
1666761187085167000,8.7581669921875,0.0016506898164749145,1.3425006501376628,-0.19851970808953046
1666761187105112000,8.778112060546874,-0.3440998166194185,1.3453472717404364,-0.1485027545109391
1666761187125057300,8.798057373046875,-0.6351906582374125,1.3287024264097214,0.02307019306994043
1666761187145002200,8.818002197265624,-0.427608084378764,1.2912801659882067,-0.20267507420331238
1666761187164947000,8.837947021484375,-0.15068272889852524,0.8547147951066494,-0.3807607738122344
1666761187184892200,8.85789208984375,0.186198936503008,0.6869985138207674,-0.25274346570819617
1666761187204838100,8.877838134765625,0.5454717358022928,0.204302090883255,0.025257483114302155
1666761187224783000,8.897783203125,0.6030939036875963,0.07584872944951057,-0.2167798796623945
1666761187244728000,8.91772802734375,-0.12291896205171941,-0.2510246790915727,-0.10916383767998776
1666761187264673300,8.93767333984375,-0.47603111982941626,-0.43316345348358154,0.03030716771930456
1666761187284618200,8.9576181640625,-0.39624373575672506,-1.0173445669084786,0.09766777168088592
1666761187304563000,8.97756298828125,-0.2726015739969909,-1.2980325628578662,-0.18357874406725166
1666761187324508200,8.997508056640624,-0.024201544320583343,-1.2481143934786318,-0.18901859703361987
1666761187344453000,9.017453125,-0.3400397641062736,-0.8934130668133496,0.5552586780622601
1666761187364398300,9.0373984375,-0.9657562723599373,-0.5467383947372436,0.6947258932024241
1666761187384343000,9.057343017578125,-1.1276678128898143,-0.8654045314252377,0.24266484702527522
1666761187404288000,9.0772880859375,-0.4386281486302614,-1.1705460006296633,-0.5170306542158126
1666761187424233200,9.097233154296875,0.4006418245851993,-1.0562731402397154,-0.21480711828470228
1666761187444178200,9.11717822265625,0.30732582750618453,-0.8997381781816483,0.29968437284231186
1666761187464123100,9.137123046875,-0.10082096588164567,-1.2689397393643855,0.21387338109854606
1666761187484068000,9.157068115234376,-0.4079363655075431,-1.8717092334032057,-0.2660644090468995
1666761187504013000,9.177012939453125,-0.34894670866131783,-1.9367846399039028,-0.4252504884019494
1666761187523958300,9.196958251953125,0.9584723989620805,-1.8614485361516475,-0.010227068976592271
1666761187543903200,9.2169033203125,-0.4048679178476333,-2.8403321472406384,0.6851032015934586
1666761187563848200,9.23684814453125,-0.026361352702975273,-2.5942799958646297,-0.33158903888612984
1666761187583793200,9.256793212890624,-1.4297501867845654,-2.9427029729127883,-0.013350443427823483
1666761187603738000,9.276738037109375,-1.8065806354105471,-2.3392016574680805,-0.022018062801659105
1666761187623683300,9.296683349609374,-2.3543831522479652,-2.115409268695116,0.14779749231841413
1666761187643628000,9.3166279296875,-2.2474644540131092,-1.9347920047819613,-0.2749421457737684
1666761187663572700,9.33657275390625,-1.4734437825605273,-1.7345979337394237,-0.5075236979410052
1666761187683517700,9.356517578125,-0.48301031119227406,-1.524150179708004,-0.33355303243547674
1666761187703463000,9.376462890625,-0.06077274087071419,-1.3355945240110159,0.2586541510567069
1666761187723408000,9.396407958984375,0.2181853625461459,-0.9530003972917794,0.09735359116517939
1666761187743352800,9.416352783203125,0.447134257299453,-0.8328601061731576,0.09487346478723921
1666761187763297800,9.4362978515625,0.30391864941120145,-0.8900853836953639,-0.13449673325121403
1666761187783242800,9.45624267578125,0.21665186936855316,-0.6777928785800933,-0.1859545332878828
1666761187803188000,9.47618798828125,0.07223302317038179,-0.3886480199307203,0.10769143617302179
1666761187823132700,9.496132568359375,0.4097406384505331,-0.19056290386617183,0.08934972379654646
1666761187843079000,9.516078857421874,0.4492120864868164,-0.08496610188484191,0.10413199012577533
1666761187863023900,9.53602392578125,0.5137663917228579,0.16195464901924134,0.08407119887173176
1666761187882968600,9.555968505859376,0.27639804367050524,0.25587036555707454,-0.10774930384010076
1666761187902913800,9.575913818359375,-0.30322058414444325,0.2292629291385412,-0.1325908996298909
1666761187922858800,9.595858642578126,-0.5432533291004598,0.4521750279456377,-0.405939054210484
1666761187942804000,9.615803955078125,-0.8028614198811351,0.6293757614135742,-0.11245178244262934
1666761187962748700,9.635748779296875,-0.7105195285312831,0.5906318969994783,0.3405804468542337
1666761187982693600,9.655693603515624,-0.4116717526435852,0.580880318313837,0.14927958410233258
1666761188002638800,9.675638916015625,-0.5131055897265673,0.7151134321928024,0.12609890726208686
1666761188022583800,9.695583740234374,-0.720075876905769,0.9795061269015073,0.001293255251753726
1666761188042528800,9.71552880859375,-1.0221826545894146,1.230967443844676,-0.06404226406067609
1666761188062473700,9.7354736328125,-0.9136334325432777,1.5702046593964099,-0.19596651647537947
1666761188082418700,9.755418701171875,-0.384904595618695,1.7337252425581215,-0.03917582609057426
1666761188102364000,9.775364013671876,0.23508783589974044,2.033160024553537,0.14071809198409319
1666761188122308600,9.79530859375,0.7779039426267147,2.3698048855245113,0.21176965028494596
1666761188142253800,9.81525390625,0.7902935416657477,2.4420997218847273,0.31209727969169615
1666761188162198800,9.83519873046875,0.9068728523671626,2.551822079363465,0.1557011415824294
1666761188182143700,9.855143798828125,0.8154596201695501,2.818177014055848,0.239474234290421
1666761188202089000,9.8750888671875,0.34976737739443775,2.8267431823492046,0.1929544751778245
1666761188222033700,9.89503369140625,0.5806371572077274,2.733302682107687,-0.08067454217076302
1666761188241979000,9.914978759765624,0.6287022460661829,2.569620186382532,-0.17275341693656518
1666761188261923800,9.934923828125,0.45909167546629903,2.5445494580119847,0.08281038515567779
1666761188281868800,9.954868896484374,0.7404210380591452,2.1642875736325977,-0.1724389076272957
1666761188301813800,9.974813720703125,0.7763977027822285,1.7842834634065627,-0.26189998284382743
1666761188321758700,9.9947587890625,0.16717464868985116,1.6783996611773966,-0.4498640841221437
1666761188341704000,10.014703857421875,0.026752836238592863,1.9749048194617032,-0.18138916160110383
1666761188361649000,10.03464892578125,-0.4586569373108446,2.11739722764194,0.5671013472756371
1666761188381593600,10.054593505859375,-1.2768423291824758,2.124247239667177,0.44379681997243314
1666761188401538800,10.074538818359375,-1.161838962560892,1.7811843283474444,-0.5007940974250435
1666761188421483800,10.09448388671875,-0.22444997589886187,1.128293251311779,-0.6117214467793702
1666761188441428700,10.1144287109375,-0.15164470579847691,0.469714776289463,-0.15030801383461803
1666761188461373700,10.134373779296874,-0.20299831480830907,-0.09662731358408927,-0.3612400442516431
1666761188481318700,10.154318603515625,0.3417804702937603,-0.9554092119991778,-0.5817053709611296
1666761188501265000,10.174264892578124,1.0887129360735415,-1.2253139481276274,0.16895079151690004
1666761188521209600,10.194209716796875,0.9085194505304097,-1.1811971585035324,0.30458588114827867
1666761188541154800,10.21415478515625,0.11974398527741431,-1.2635393416255711,-0.01768617107719183
1666761188561099800,10.234099853515625,-0.5258382300496101,-1.3321405841648577,-0.26099223861545323
1666761188581044700,10.254044677734376,-0.3439616137251258,-1.4926041178435085,-0.26604480929728597
1666761188600989700,10.27398974609375,-0.5863049737110734,-1.6291858406752346,0.001654818002320826
1666761188620934700,10.2939345703125,-1.179852758157253,-1.985377113637328,-0.04774111760109663
1666761188640879900,10.3138798828125,-1.195966857612133,-2.2073756047308444,0.09201835848391056
1666761188660824600,10.333824462890625,-1.0473217720210553,-2.4510452448844906,-0.24506080225110052
1666761188680769800,10.353769775390624,-1.023692474630475,-2.5921429838359353,-0.17355974661707876
1666761188700714500,10.373714599609375,-0.9202236245885491,-2.6967022594630716,-0.21668135119136422
1666761188720659500,10.393659423828124,-0.7815089813813567,-2.5705326250523326,0.19646076626572756
1666761188740604700,10.413604736328125,-0.4497030848741531,-2.2957804488927125,0.17987112172096967
1666761188760549600,10.433549560546876,-0.1365118724659085,-2.014096427643299,-0.1454974169488065
1666761188780494300,10.453494384765625,-0.04022241253405809,-1.5943004052549599,-0.30638034508330747
1666761188800439600,10.473439453125,-1.0280085842639208,-1.127071600562334,0.12137012517452239
1666761188820384500,10.493384521484375,-0.4420332808986306,-0.9320616541594267,0.11006550836060196
1666761188840329700,10.513329833984375,-0.3036556145608425,-0.5555670133590698,-0.24252982246875762
1666761188860274400,10.5332744140625,-0.2328860880717635,-0.27544834173023697,0.13285128586543724
1666761188880219400,10.553219482421875,-0.29373890844136474,-0.09354279157221317,-0.03342031303746625
