time,seconds_elapsed,z,y,x
1666761297345496300,0.024496337890625,0.02245764620602131,0.022701390087604523,0.03937968239188194
1666761297365441300,0.044441162109375,0.015010898932814598,0.03183019906282425,0.04878544062376022
1666761297385386200,0.06438623046875,0.039374638348817825,0.0172406118363142,0.05391242355108261
1666761297405331500,0.08433154296875,0.020138412714004517,0.030256688594818115,0.08143225312232971
1666761297425276200,0.104276123046875,0.0034183189272880554,-0.007696269080042839,0.13432855904102325
1666761297445221400,0.124221435546875,0.014406813308596611,-0.005119457840919495,0.17538879811763763
1666761297465166300,0.144166259765625,0.01435593981295824,0.04141867160797119,0.12947706878185272
1666761297485111300,0.164111328125,0.01541499886661768,0.03179704397916794,0.09725642204284668
1666761297505056300,0.18405615234375,0.013138294219970703,-0.004850167781114578,0.11202717572450638
1666761297525001200,0.204001220703125,-0.004464337602257729,-0.03978326916694641,0.14792637526988983
1666761297544946200,0.2239462890625,0.025177322328090668,-0.026683516800403595,0.20831993222236633
1666761297564891400,0.243891357421875,0.018684063106775284,0.02603033185005188,0.30757689476013184
1666761297584836400,0.26383642578125,0.013480355963110924,0.004503030329942703,0.2696119546890259
1666761297604781300,0.28378125,0.025015922263264656,-0.022256970405578613,0.1919347494840622
1666761297624726300,0.303726318359375,0.02773464098572731,0.012641075998544693,0.15832901000976562
1666761297644671200,0.323671142578125,0.005653064232319593,0.014450551941990852,0.14291994273662567
1666761297664616400,0.343616455078125,-0.010771648027002811,0.018612466752529144,0.14781531691551208
1666761297684561200,0.36356103515625,-0.025717679411172867,-0.015732748433947563,0.17904920876026154
1666761297704506400,0.38350634765625,-0.01791493222117424,-0.08638255298137665,0.17937566339969635
1666761297724451300,0.403451416015625,0.02634301967918873,-0.08103647828102112,0.1818694919347763
1666761297744396300,0.423396240234375,0.06820453703403473,-0.011471547186374664,0.20262566208839417
1666761297764341200,0.44334130859375,0.07064928114414215,0.02467578649520874,0.22717168927192688
1666761297784287000,0.463286865234375,0.07247046381235123,0.022660214453935623,0.22406262159347534
1666761297804232000,0.48323193359375,0.060490306466817856,-0.026295147836208344,0.20947004854679108
1666761297824177200,0.50317724609375,0.062133122235536575,-0.103461354970932,0.21100197732448578
1666761297844121900,0.523121826171875,0.1322091668844223,-0.14187805354595184,0.20553572475910187
1666761297864066800,0.54306689453125,0.2079300433397293,-0.17588040232658386,0.1732511967420578
1666761297884012000,0.563011962890625,0.23090387880802155,-0.11033719033002853,0.1698070615530014
1666761297903957000,0.58295703125,0.28529074788093567,0.03083575703203678,0.24193508923053741
1666761297923902000,0.60290185546875,0.3150196373462677,0.10978563129901886,0.25268271565437317
1666761297943847000,0.622846923828125,0.27163833379745483,0.049978598952293396,0.183047354221344
1666761297963792000,0.6427919921875,0.34364384412765503,0.0742318257689476,0.14056077599525452
1666761297983737000,0.662737060546875,0.46953532099723816,0.11659553647041321,0.10601282119750977
1666761298003681800,0.682681884765625,0.6069048047065735,0.2838507890701294,0.13838474452495575
1666761298023627000,0.702626953125,0.853557288646698,0.36422228813171387,0.23019592463970184
1666761298043572000,0.722572021484375,1.1741670370101929,0.31827226281166077,0.26123422384262085
1666761298063517000,0.742516845703125,1.3419448137283325,0.19677822291851044,0.3018524944782257
1666761298083462000,0.7624619140625,1.3984732627868652,0.18489500880241394,0.36955130100250244
1666761298103406800,0.78240673828125,1.4525525569915771,0.3602365255355835,0.3429875075817108
1666761298123350800,0.802350830078125,1.5277265310287476,0.43860986828804016,0.2166229635477066
1666761298143297000,0.822297119140625,1.5731284618377686,0.4733855128288269,0.15187221765518188
1666761298163242000,0.842241943359375,1.659553050994873,0.3786347210407257,0.1903887689113617
1666761298183186000,0.86218603515625,1.7082163095474243,0.3138798475265503,0.2802477478981018
1666761298203131000,0.882130859375,1.7645734548568726,0.34526583552360535,0.322985976934433
1666761298223075800,0.902075927734375,1.8185818195343018,0.449126273393631,0.3392101228237152
1666761298243021000,0.92202099609375,1.7977138757705688,0.431122362613678,0.37572816014289856
1666761298262966000,0.941966064453125,1.7441331148147583,0.3263758420944214,0.45902273058891296
1666761298282910700,0.96191064453125,1.6432373523712158,0.32969847321510315,0.5053775906562805
1666761298302856000,0.98185595703125,1.5007822513580322,0.40996086597442627,0.47817400097846985
1666761298322801000,1.00180078125,1.3789714574813843,0.5132869482040405,0.36609596014022827
1666761298342746000,1.02174609375,1.2817959785461426,0.40487703680992126,0.2690625488758087
1666761298362690800,1.04169091796875,1.2144131660461426,0.17020218074321747,0.21384556591510773
1666761298382635800,1.0616357421875,1.1186543703079224,0.03521120548248291,0.2379435896873474
1666761298402581000,1.0815810546875,0.9986185431480408,0.054332125931978226,0.23982295393943787
1666761298422526000,1.10152587890625,0.8130629062652588,0.11769545823335648,0.13409891724586487
1666761298442471000,1.121470947265625,0.6070634126663208,0.0979170873761177,-0.015861067920923233
1666761298462416000,1.141415771484375,0.5028538703918457,-0.04047165811061859,-0.04770047962665558
1666761298482360800,1.16136083984375,0.40164509415626526,-0.10367703437805176,0.04325774684548378
1666761298502306000,1.18130615234375,0.24559497833251953,-0.106343112885952,0.12089602649211884
1666761298522251000,1.2012509765625,0.10869360715150833,-0.11763057112693787,0.06223954260349274
1666761298542196000,1.221196044921875,-0.02821427583694458,-0.12409278750419617,-0.06255905330181122
1666761298562141000,1.241140869140625,-0.22938501834869385,-0.09985773265361786,-0.08096259087324142
1666761298582086000,1.2610859375,-0.4825170040130615,-0.10459620505571365,-0.03876686096191406
1666761298602031000,1.281031005859375,-0.7203251123428345,-0.06126152724027634,-0.022113382816314697
1666761298621975800,1.300975830078125,-0.9433493614196777,-0.10833431035280228,-0.04658268019556999
1666761298641921000,1.320921142578125,-1.132645845413208,-0.16803038120269775,-0.10039247572422028
1666761298661866000,1.340865966796875,-1.310274362564087,-0.21566127240657806,-0.15117517113685608
1666761298681811000,1.36081103515625,-1.5310630798339844,-0.2535117268562317,-0.14153921604156494
1666761298701756000,1.380755859375,-1.8181692361831665,-0.27617955207824707,-0.07685257494449615
1666761298721700900,1.400700927734375,-2.1413261890411377,-0.3043000400066376,-0.04412198066711426
1666761298741646000,1.42064599609375,-2.46588397026062,-0.332809716463089,-0.012038948014378548
1666761298761591000,1.440591064453125,-2.6943798065185547,-0.3516819477081299,-0.02758924476802349
1666761298781535000,1.460534912109375,-2.871086359024048,-0.43445757031440735,-0.11028902232646942
1666761298801480000,1.48047998046875,-2.979426145553589,-0.5639523267745972,-0.14801159501075745
1666761298821425000,1.5004248046875,-3.1302926540374756,-0.7676096558570862,-0.10845516622066498
1666761298841369900,1.520369873046875,-3.31198787689209,-0.7056683897972107,-0.09935453534126282
1666761298861315000,1.540315185546875,-3.424745798110962,-0.6588565111160278,-0.25738322734832764
1666761298881260000,1.560260009765625,-3.467188596725464,-0.6213803887367249,-0.3869258165359497
1666761298901205000,1.580205078125,-3.176685094833374,-0.5890087485313416,-0.3372703194618225
1666761298921150000,1.60014990234375,-2.7973344326019287,-0.519873857498169,-0.10771241039037704
1666761298941094000,1.620093994140625,-2.5560946464538574,-0.5243091583251953,0.03164704516530037
1666761298961039000,1.6400390625,-2.1969826221466064,-0.4013747572898865,-0.057904716581106186
1666761298980984000,1.659984130859375,-1.883508563041687,-0.4523922801017761,-0.2242947816848755
1666761299000928800,1.6799287109375,-1.6644575595855713,-0.3277911841869354,-0.27336639165878296
1666761299020874000,1.6998740234375,-1.3729628324508667,-0.24041283130645752,-0.3274502754211426
1666761299040819000,1.71981884765625,-1.2086787223815918,-0.15926548838615417,-0.3252998888492584
1666761299060764200,1.73976416015625,-1.2710025310516357,-0.20391850173473358,-0.26666173338890076
1666761299080708900,1.759708984375,-1.2015266418457031,-0.34121009707450867,-0.19597722589969635
1666761299100653800,1.77965380859375,-1.0838842391967773,-0.5157574415206909,-0.15731623768806458
1666761299120599000,1.79959912109375,-1.0127707719802856,-0.5298058390617371,-0.06644729524850845
1666761299140544000,1.8195439453125,-0.9483381509780884,-0.48392313718795776,-0.00805729441344738
1666761299160489000,1.839489013671875,-0.8501917123794556,-0.5583010315895081,-0.05464497581124306
1666761299180434000,1.859433837890625,-0.7705032825469971,-0.6250609159469604,-0.10856720805168152
1666761299200379000,1.87937890625,-0.7031126618385315,-0.5187659859657288,-0.0951392874121666
1666761299220324000,1.899323974609375,-0.572592556476593,-0.3691275119781494,0.001892580185085535
1666761299240269000,1.91926904296875,-0.35464102029800415,-0.23955392837524414,0.15424226224422455
1666761299260214000,1.939214111328125,-0.0959024503827095,-0.1512111872434616,0.23722726106643677
1666761299280159000,1.959158935546875,0.17087237536907196,-0.14890098571777344,0.2057875096797943
1666761299300104000,1.97910400390625,0.4716319143772125,-0.09320181608200073,0.09405264258384705
1666761299320049200,1.999049072265625,0.8033684492111206,0.04210945963859558,0.05175599083304405
1666761299339993900,2.018993896484375,1.1201672554016113,0.12964126467704773,0.1331864297389984
1666761299359938800,2.038938720703125,1.3322011232376099,0.21590140461921692,0.14193019270896912
1666761299379884000,2.058884033203125,1.615676760673523,0.26098188757896423,0.11319272220134735
1666761299399829000,2.0788291015625,1.8832926750183105,0.4250521659851074,0.03078414872288704
1666761299419774000,2.09877392578125,2.117213726043701,0.5049108862876892,0.008622599765658379
1666761299439719000,2.118718994140625,2.409022808074951,0.5912288427352905,-0.010378437116742134
1666761299459664000,2.138663818359375,2.6012918949127197,0.5151578783988953,-0.15691296756267548
1666761299479609000,2.158609130859375,2.7602996826171875,0.4496322572231293,-0.2555793821811676
1666761299499553800,2.1785537109375,2.9787988662719727,0.49697256088256836,-0.2343052625656128
1666761299519499000,2.1984990234375,3.109633684158325,0.6589959263801575,-0.0491793230175972
1666761299539444000,2.21844384765625,3.191342830657959,0.6810616254806519,0.21945686638355255
1666761299559389000,2.238388916015625,3.234372138977051,0.5160919427871704,0.32133814692497253
1666761299579334100,2.258334228515625,3.2278692722320557,0.4243028461933136,0.3622892200946808
1666761299599278000,2.278278076171875,3.231412410736084,0.505413830280304,0.2853757441043854
1666761299619222800,2.298222900390625,3.2015602588653564,0.4329223036766052,0.024439463391900063
1666761299639168000,2.31816796875,3.041417360305786,0.27999386191368103,-0.07577028125524521
1666761299659113000,2.338113037109375,2.737858295440674,0.2524387836456299,-0.0688517689704895
1666761299679058200,2.35805810546875,2.581129550933838,0.2787778973579407,-0.030820345506072044
1666761299699003000,2.3780029296875,2.481849193572998,0.3546910285949707,0.08323984593153
1666761299718947800,2.39794775390625,2.2959961891174316,0.3208412230014801,0.16311120986938477
1666761299738893000,2.41789306640625,2.0703344345092773,0.3501475155353546,0.1574617624282837
1666761299758838000,2.437838134765625,1.7915822267532349,0.4326346516609192,-0.008424810133874416
1666761299778783200,2.457783203125,1.5659185647964478,0.36520862579345703,-0.14484159648418427
1666761299798728400,2.477728515625,1.3924098014831543,0.14110955595970154,-0.14036448299884796
1666761299818673400,2.49767333984375,1.2481428384780884,0.014569256454706192,-0.08690207451581955
1666761299838618600,2.51761865234375,1.0280001163482666,-0.008381731808185577,-0.09286317974328995
1666761299858563300,2.537563232421875,0.8305321335792542,-0.032562851905822754,-0.08537854999303818
1666761299878508300,2.55750830078125,0.6547932624816895,-0.01942039281129837,-0.057156793773174286
1666761299898453500,2.57745361328125,0.4757416248321533,-0.02603188529610634,-0.08988223969936371
1666761299918398500,2.5973984375,0.2729378342628479,-0.029136303812265396,-0.0681556686758995
1666761299938343400,2.617343505859375,-0.04726528376340866,-0.07456648349761963,0.033969320356845856
1666761299958288400,2.637288330078125,-0.4304465651512146,-0.1347743272781372,0.15088996291160583
1666761299978233300,2.6572333984375,-0.7438997626304626,-0.19454894959926605,0.17835313081741333
1666761299998178600,2.677178466796875,-0.9555904269218445,-0.18185511231422424,0.16352838277816772
1666761300018123300,2.697123291015625,-1.1227792501449585,-0.1563025712966919,0.17347095906734467
1666761300038068500,2.717068359375,-1.336551308631897,-0.1524316966533661,0.2540607452392578
1666761300058013400,2.737013427734375,-1.6096504926681519,-0.20027200877666473,0.27370861172676086
1666761300077958400,2.75695849609375,-1.9671647548675537,-0.30924999713897705,0.22133617103099823
1666761300097903600,2.776903564453125,-2.2888760566711426,-0.3795236051082611,0.1862843930721283
1666761300117848300,2.796848388671875,-2.527794599533081,-0.3481142520904541,0.16297870874404907
1666761300137793500,2.81679345703125,-2.693014144897461,-0.2980166971683502,0.12647196650505066
1666761300157738500,2.836738525390625,-2.7405550479888916,-0.3325960040092468,0.08925885707139969
1666761300177683500,2.856683349609375,-2.7312984466552734,-0.4561508893966675,0.08723632991313934
1666761300197628400,2.87662841796875,-2.7648985385894775,-0.5230863094329834,0.15186011791229248
1666761300217573400,2.896573486328125,-2.8484559059143066,-0.539590060710907,0.20192790031433105
1666761300237518600,2.9165185546875,-2.8266656398773193,-0.4273628294467926,0.1340433955192566
1666761300257463600,2.936463623046875,-2.7242326736450195,-0.33021509647369385,-0.04388723522424698
1666761300277407500,2.956407470703125,-2.6679282188415527,-0.31069856882095337,-0.18222329020500183
1666761300297352400,2.9763525390625,-2.6376469135284424,-0.29430708289146423,-0.22895438969135284
1666761300317297400,2.99629736328125,-2.5998735427856445,-0.3398938477039337,-0.2606450617313385
1666761300337242400,3.016242431640625,-2.6451356410980225,-0.35128119587898254,-0.2890784740447998
1666761300357187600,3.0361875,-2.5716302394866943,-0.2596738934516907,-0.351102352142334
1666761300377132300,3.05613232421875,-2.361362934112549,-0.22563710808753967,-0.3330710530281067
1666761300397077200,3.0760771484375,-2.188204765319824,-0.289981484413147,-0.28024762868881226
1666761300417022500,3.0960224609375,-2.0427138805389404,-0.2852277159690857,-0.2531001567840576
1666761300436967400,3.115967529296875,-1.8832910060882568,-0.39862218499183655,-0.2800699770450592
1666761300456912600,3.13591259765625,-1.7414515018463135,-0.5313582420349121,-0.3146587312221527
1666761300476857300,3.155857421875,-1.6119879484176636,-0.5264214277267456,-0.29331526160240173
1666761300496802300,3.17580224609375,-1.5469025373458862,-0.5185298323631287,-0.23314744234085083
1666761300516747500,3.19574755859375,-1.5530428886413574,-0.504087507724762,-0.1986609846353531
1666761300536692500,3.2156923828125,-1.595824956893921,-0.5590360760688782,-0.1632385551929474
1666761300556637400,3.235637451171875,-1.5758107900619507,-0.4405960440635681,-0.05585779622197151
1666761300576582400,3.25558251953125,-1.417096734046936,-0.2559518814086914,0.17553521692752838
1666761300596527400,3.27552734375,-1.1770316362380981,-0.28091302514076233,0.35475829243659973
1666761300616472600,3.29547265625,-0.8884860873222351,-0.4611247181892395,0.35777387022972107
1666761300636417300,3.315417236328125,-0.586769700050354,-0.4554380178451538,0.2879849672317505
1666761300656362500,3.335362548828125,-0.3221495449542999,-0.26429158449172974,0.24426446855068207
1666761300676307500,3.355307373046875,-0.0374363549053669,-0.015532728284597397,0.14876461029052734
1666761300696252400,3.37525244140625,0.2529977858066559,0.07013418525457382,0.02963961474597454
1666761300716197400,3.395197265625,0.5764533877372742,0.04638185352087021,0.0029969317838549614
1666761300736142300,3.415142333984375,0.8565351366996765,0.06293997913599014,0.051409296691417694
1666761300756087600,3.435087646484375,1.1266040802001953,0.09939585626125336,0.12532943487167358
1666761300776032300,3.4550322265625,1.3793424367904663,0.27071285247802734,0.14524783194065094
1666761300795977200,3.474977294921875,1.5815626382827759,0.37694302201271057,0.1288677603006363
1666761300815922200,3.494922119140625,1.7362912893295288,0.4255247414112091,0.08746172487735748
1666761300835867100,3.5148671875,1.898190975189209,0.4257008731365204,0.012612633407115936
1666761300855812400,3.534812255859375,2.1042401790618896,0.4683845639228821,0.04142412543296814
1666761300875757300,3.55475732421875,2.3316261768341064,0.48111480474472046,0.13662125170230865
1666761300895702000,3.574701904296875,2.491438627243042,0.4640989601612091,0.2552594244480133
1666761300915647200,3.594647216796875,2.7624025344848633,0.40827542543411255,0.4135468304157257
1666761300935592200,3.61459228515625,2.932277202606201,0.40469473600387573,0.5176293849945068
1666761300955536100,3.6345361328125,3.1218998432159424,0.4454330801963806,0.5513646006584167
1666761300975481300,3.6544814453125,3.417382001876831,0.5562502145767212,0.5053701400756836
1666761300995426300,3.67442626953125,3.6231846809387207,0.5282900929450989,0.397085040807724
1666761301015371300,3.694371337890625,3.669363498687744,0.5100185871124268,0.31685057282447815
1666761301035316200,3.714316162109375,3.5957725048065186,0.6881362199783325,0.27587229013442993
1666761301055261200,3.73426123046875,3.512662172317505,0.7389296293258667,0.17539305984973907
1666761301075206400,3.754206298828125,3.368940591812134,0.6774642467498779,0.03762172907590866
1666761301095151000,3.774151123046875,3.106480836868286,0.6414093375205994,-0.1458907127380371
1666761301115096300,3.794096435546875,2.898406744003296,0.6399745941162109,-0.22467418015003204
1666761301135041300,3.814041259765625,2.6663036346435547,0.5684941411018372,-0.16283996403217316
1666761301154986200,3.833986328125,2.4656267166137695,0.48191800713539124,-0.07103250175714493
1666761301174931200,3.85393115234375,2.268935203552246,0.3679717481136322,-0.06642203778028488
1666761301194876200,3.873876220703125,2.0793449878692627,0.436635822057724,-0.02143864333629608
1666761301214821400,3.8938212890625,1.8839504718780518,0.562341570854187,-0.04016558825969696
1666761301234766300,3.913766357421875,1.7199914455413818,0.6254446506500244,-0.08523596078157425
1666761301254711000,3.9337109375,1.500294804573059,0.5150960683822632,-0.11999789625406265
1666761301274654200,3.953654296875,1.2473939657211304,0.349360853433609,-0.18230222165584564
1666761301294599200,3.97359912109375,1.011452078819275,0.20794837176799774,-0.2585667669773102
1666761301314544000,3.993544189453125,0.8425288796424866,0.1906459927558899,-0.24682682752609253
1666761301334489000,4.013489013671875,0.6941109895706177,0.19021520018577576,-0.07483191788196564
1666761301354434300,4.033434326171875,0.4444836676120758,0.14389151334762573,0.07774681597948074
1666761301374379300,4.053379150390625,0.11313913762569427,0.027882523834705353,0.08785955607891083
1666761301394324200,4.07332421875,-0.15589916706085205,-0.04562234506011009,0.010924066416919231
1666761301414269200,4.093269287109375,-0.3908275067806244,-0.04268336296081543,0.031244609504938126
1666761301434214100,4.113214111328125,-0.6342849731445312,-0.09229718893766403,0.16927309334278107
1666761301454159400,4.133159423828125,-0.8810077905654907,-0.21468976140022278,0.2757244408130646
1666761301474104000,4.15310400390625,-1.1775860786437988,-0.3206230700016022,0.28313034772872925
1666761301494049300,4.17304931640625,-1.481976866722107,-0.37611421942710876,0.2224607765674591
1666761301513994200,4.192994140625,-1.6636801958084106,-0.3058626651763916,0.12023232132196426
1666761301533939200,4.212939208984375,-1.8798649311065674,-0.2793515920639038,0.017704132944345474
1666761301553884200,4.23288427734375,-2.16579270362854,-0.377139151096344,0.02941621094942093
1666761301573829000,4.2528291015625,-2.4086852073669434,-0.5168642401695251,0.12505246698856354
1666761301593774300,4.2727744140625,-2.626460552215576,-0.5853527784347534,0.17056821286678314
1666761301613719300,4.29271923828125,-2.845308303833008,-0.46647408604621887,0.11658360809087753
1666761301633664300,4.312664306640625,-3.0916800498962402,-0.4332704544067383,-0.0514761246740818
1666761301653609200,4.332609130859375,-3.255117654800415,-0.4165845215320587,-0.22749394178390503
1666761301673554200,4.35255419921875,-3.4008939266204834,-0.4514297842979431,-0.25909140706062317
1666761301693499400,4.37249951171875,-3.4785845279693604,-0.5016640424728394,-0.20715782046318054
1666761301713444400,4.3924443359375,-3.407658815383911,-0.5724078416824341,-0.2382434904575348
1666761301733389000,4.41238916015625,-3.3846945762634277,-0.5901811122894287,-0.2940516769886017
1666761301753334300,4.432334228515625,-3.367328405380249,-0.6406949758529663,-0.3271345794200897
1666761301773279200,4.452279296875,-3.3548171520233154,-0.6605485081672668,-0.36893460154533386
1666761301793224400,4.472224365234375,-3.4594037532806396,-0.5658857822418213,-0.3841952085494995
1666761301813169200,4.492169189453125,-3.446951150894165,-0.5026413202285767,-0.2814415991306305
1666761301833114400,4.5121142578125,-3.095848321914673,-0.5236726403236389,-0.09983740746974945
1666761301853059300,4.532059326171875,-2.696762800216675,-0.4167137145996094,0.097811758518219
1666761301873004300,4.55200439453125,-2.366903781890869,-0.38915547728538513,0.1355443000793457
1666761301892949200,4.57194921875,-2.097691059112549,-0.48081812262535095,-0.06758999079465866
1666761301912894200,4.591894287109375,-1.8774564266204834,-0.41491737961769104,-0.26532042026519775
1666761301932839400,4.61183935546875,-1.6911900043487549,-0.3720080554485321,-0.270811527967453
1666761301952784400,4.631784423828125,-1.459114670753479,-0.3083353042602539,-0.20266515016555786
1666761301972729000,4.65172900390625,-1.251160979270935,-0.2936546504497528,-0.19169272482395172
1666761301992674300,4.67167431640625,-1.0772870779037476,-0.3651392161846161,-0.23412378132343292
1666761302012619300,4.691619384765625,-0.8974693417549133,-0.31918543577194214,-0.23349492251873016
1666761302032564500,4.711564453125,-0.7644007205963135,-0.32088714838027954,-0.19760017096996307
1666761302052509200,4.73150927734375,-0.615713894367218,-0.3188783824443817,-0.12033968418836594
1666761302072454100,4.7514541015625,-0.37752753496170044,-0.18475808203220367,-0.05417773127555847
1666761302092399400,4.7713994140625,-0.18752194941043854,-0.01423532422631979,0.003702644957229495
1666761302112344300,4.79134423828125,-0.01496601477265358,0.019925769418478012,0.09746454656124115
1666761302132289500,4.81128955078125,0.19221359491348267,0.074095219373703,0.19662810862064362
1666761302152234200,4.831234130859375,0.4001682996749878,0.1430301070213318,0.2503722608089447
1666761302172179200,4.85117919921875,0.6544411182403564,0.22036772966384888,0.26650673151016235
1666761302192124400,4.87112451171875,0.9234707951545715,0.25272536277770996,0.24053508043289185
1666761302212069400,4.8910693359375,1.3026032447814941,0.35607704520225525,0.28749194741249084
1666761302232014300,4.911014404296875,1.6870254278182983,0.47867995500564575,0.3586036264896393
1666761302251959300,4.930959228515625,2.002763271331787,0.5312333106994629,0.31247323751449585
1666761302271904300,4.950904296875,2.312883138656616,0.5476164221763611,0.15952198207378387
1666761302291849500,4.970849365234375,2.5887200832366943,0.5777884125709534,-0.00934659130871296
1666761302311794200,4.990794189453125,2.835923194885254,0.607927680015564,-0.09323716163635254
1666761302331739400,5.010739501953125,3.164233684539795,0.6385024785995483,-0.003136619459837675
1666761302351684400,5.030684326171875,3.4604618549346924,0.658287525177002,0.21488454937934875
1666761302371628300,5.050628173828125,3.4951958656311035,0.6478731036186218,0.3796994090080261
1666761302391573200,5.0705732421875,3.495631694793701,0.6333800554275513,0.4188474416732788
1666761302411518200,5.090518310546875,3.5056846141815186,0.6861248016357422,0.4200039207935333
1666761302431463200,5.110463134765625,3.5111656188964844,0.7324299812316895,0.37976720929145813
1666761302451408400,5.130408447265625,3.5099892616271973,0.8048753142356873,0.28199347853660583
1666761302471353300,5.150353271484375,3.4842841625213623,0.7293986082077026,0.11435681581497192
1666761302491298300,5.17029833984375,3.4458837509155273,0.5067485570907593,-0.10103989392518997
1666761302511243300,5.1902431640625,3.3601670265197754,0.4322166442871094,-0.24803310632705688
1666761302531188200,5.210188232421875,3.1860454082489014,0.488572895526886,-0.26483434438705444
1666761302551133400,5.230133544921875,3.013122320175171,0.5354083776473999,-0.260675847530365
1666761302571078400,5.250078369140625,2.8191723823547363,0.5742476582527161,-0.2628242075443268
1666761302591023000,5.270023193359375,2.6359944343566895,0.46654725074768066,-0.2403440773487091
1666761302610968300,5.28996826171875,2.483222007751465,0.34875673055648804,-0.13120074570178986
1666761302630913300,5.309913330078125,2.35739803314209,0.47614941000938416,-0.0018999972380697727
1666761302650858500,5.3298583984375,2.118053913116455,0.47517040371894836,0.13092729449272156
1666761302670803200,5.34980322265625,1.8953912258148193,0.45524007081985474,0.1515166163444519
1666761302690748200,5.369748046875,1.625875473022461,0.32717013359069824,0.049909211695194244
1666761302710693400,5.389693359375,1.4203081130981445,0.25456714630126953,-0.11720926314592361
1666761302730638300,5.409638427734375,1.229520320892334,0.28997698426246643,-0.16140219569206238
1666761302750583300,5.429583251953125,0.9630861282348633,0.25897717475891113,-0.013827359303832054
1666761302770528300,5.4495283203125,0.582821786403656,0.0671733021736145,0.1215704083442688
1666761302790473500,5.469473388671875,0.1489802449941635,-0.13343335688114166,0.1531909704208374
1666761302810418400,5.48941845703125,-0.30906563997268677,-0.22647997736930847,0.10186219215393066
1666761302830363400,5.50936328125,-0.7467615008354187,-0.13385291397571564,0.059868838638067245
1666761302850308400,5.529308349609375,-1.0658605098724365,-0.18011131882667542,0.08912437409162521
1666761302870253300,5.54925341796875,-1.2683759927749634,-0.2630862891674042,0.11168226599693298
1666761302890198500,5.569198486328125,-1.4689356088638306,-0.361346572637558,0.10281006991863251
1666761302910143500,5.5891435546875,-1.7234265804290771,-0.45364508032798767,0.10213859379291534
1666761302930088400,5.60908837890625,-2.060089588165283,-0.5390906929969788,0.18235403299331665
1666761302950033400,5.629033447265625,-2.4279863834381104,-0.5658106207847595,0.220307856798172
1666761302969978400,5.648978271484375,-2.7471890449523926,-0.584633469581604,0.13165220618247986
1666761302989923600,5.668923583984375,-3.083878993988037,-0.5515539050102234,-0.011659533716738224
1666761303009868300,5.688868408203125,-3.440241813659668,-0.5436846017837524,-0.05841892212629318
1666761303029813500,5.7088134765625,-3.6816279888153076,-0.6693129539489746,-0.02982247993350029
1666761303049758500,5.728758544921875,-3.8686134815216064,-0.6979655623435974,-0.004689084831625223
1666761303069703400,5.748703369140625,-4.012988090515137,-0.7700728178024292,0.021959034726023674
1666761303089648400,5.7686484375,-3.983081579208374,-0.7933383584022522,-0.038482896983623505
1666761303109593300,5.78859326171875,-3.9641945362091064,-0.7683603763580322,-0.08773090690374374
1666761303129537300,5.808537353515625,-3.959984064102173,-0.7288890480995178,-0.09086061269044876
1666761303149482500,5.828482421875,-3.828685760498047,-0.7860634922981262,-0.10395096242427826
1666761303169427500,5.848427490234375,-3.6638574600219727,-0.8639918565750122,-0.17970377206802368
1666761303189372400,5.868372314453125,-3.3411858081817627,-0.9236165285110474,-0.2858264446258545
1666761303209317400,5.8883173828125,-2.9913856983184814,-0.8070721626281738,-0.4057050347328186
1666761303229262300,5.908262451171875,-2.7242908477783203,-0.6099773049354553,-0.45204389095306396
1666761303249207600,5.92820751953125,-2.5379526615142822,-0.42121973633766174,-0.46190351247787476
1666761303269152500,5.948152587890625,-2.3778982162475586,-0.30655398964881897,-0.456428200006485
1666761303289097500,5.968097412109375,-2.3071603775024414,-0.3828073740005493,-0.44006577134132385
1666761303309042400,5.98804248046875,-2.211841106414795,-0.49703249335289,-0.3594982326030731
1666761303328987400,6.0079873046875,-2.125206708908081,-0.6243569254875183,-0.22910036146640778
1666761303348932600,6.0279326171875,-2.0513839721679688,-0.6469160318374634,-0.0703352838754654
1666761303368877300,6.047877197265625,-1.9123406410217285,-0.6845128536224365,0.06860227882862091
1666761303388822300,6.067822265625,-1.64742910861969,-0.58506840467453,0.1156478002667427
1666761303408767500,6.087767578125,-1.385874629020691,-0.4416908323764801,0.09150219708681107
1666761303428712400,6.10771240234375,-1.0937808752059937,-0.3271903395652771,0.0023551539052277803
1666761303448657400,6.127657470703125,-0.788855791091919,-0.2507516145706177,-0.06012652814388275
1666761303468602400,6.147602294921875,-0.5028814077377319,-0.1663847267627716,-0.10828042775392532
1666761303488547300,6.16754736328125,-0.22552743554115295,-0.10144399106502533,-0.09855640679597855
1666761303508492500,6.187492431640625,0.0413372777402401,-0.039494600147008896,0.004198199138045311
1666761303528437500,6.2074375,0.43411922454833984,0.13583585619926453,0.1542205959558487
1666761303548382500,6.227382568359375,0.9193572402000427,0.3194785416126251,0.2758258283138275
1666761303568327400,6.247327392578125,1.4011155366897583,0.44920310378074646,0.2984887659549713
1666761303588272400,6.2672724609375,1.8139137029647827,0.5643073320388794,0.16962626576423645
1666761303608217600,6.287217529296875,2.065129518508911,0.5569584369659424,-0.030008498579263687
1666761303628162300,6.307162353515625,2.319052219390869,0.5282039642333984,-0.08515920490026474
1666761303648107500,6.327107421875,2.635631799697876,0.5249285697937012,-0.0091848848387599
1666761303668052500,6.347052490234375,2.9061577320098877,0.6228443384170532,0.08888500183820724
1666761303687997400,6.36699755859375,3.107281446456909,0.6474394798278809,0.22985760867595673
1666761303707942400,6.3869423828125,3.242973566055298,0.4992731511592865,0.3539152145385742
1666761303727887400,6.406887451171875,3.399286985397339,0.40337803959846497,0.36841392517089844
1666761303747832600,6.42683251953125,3.4827516078948975,0.319848895072937,0.17536364495754242
1666761303767777500,6.446777587890625,3.4732751846313477,0.46464547514915466,0.021389732137322426
1666761303787722200,6.46672216796875,3.5113561153411865,0.46515747904777527,0.18970033526420593
1666761303807667200,6.486667236328125,3.4341840744018555,0.395967572927475,0.38113778829574585
1666761303827612400,6.5066123046875,3.4134511947631836,0.5236898064613342,0.5131935477256775
1666761303847557400,6.526557373046875,3.4282360076904297,0.749180018901825,0.4925999939441681
1666761303867502300,6.54650244140625,3.310685157775879,0.7949215769767761,0.4820702075958252
1666761303887447300,6.566447265625,3.2775092124938965,0.7927553057670593,0.3534335792064667
1666761303907392300,6.586392333984375,3.2137434482574463,0.7575803995132446,0.10793916136026382
1666761303927337500,6.60633740234375,3.122284412384033,0.7682930827140808,-0.14255382120609283
1666761303947282400,6.626282470703125,3.119389057159424,0.6392406225204468,-0.34377437829971313
1666761303967226400,6.646226318359375,3.072268486022949,0.4816417992115021,-0.40049418807029724
1666761303987171300,6.66617138671875,2.830486297607422,0.3771388828754425,-0.2647358477115631
1666761304007116300,6.6861162109375,2.5185205936431885,0.4361775517463684,-0.17651529610157013
1666761304027061200,6.706061279296875,2.1727893352508545,0.5597906112670898,-0.2291279435157776
1666761304047006500,6.72600634765625,1.9021061658859253,0.490400493144989,-0.32860004901885986
1666761304066951200,6.745951171875,1.7890625,0.5216390490531921,-0.2912750840187073
1666761304086896400,6.765896484375,1.5769054889678955,0.41864630579948425,-0.026160040870308876
1666761304106841300,6.78584130859375,1.2495931386947632,0.3490276336669922,0.09739712625741959
1666761304126786300,6.805786376953125,0.8214390277862549,0.20173512399196625,0.009915413334965706
1666761304146731300,6.825731201171875,0.41969722509384155,0.14335864782333374,-0.13487765192985535
1666761304166676200,6.84567626953125,0.060380153357982635,0.07060771435499191,-0.10739433020353317
1666761304186621400,6.865621337890625,-0.3432842791080475,-0.003753211349248886,0.045815400779247284
1666761304206566400,6.88556640625,-0.8013916015625,-0.12791377305984497,0.17135362327098846
1666761304226511400,6.905511474609375,-1.1840025186538696,-0.21657970547676086,0.23037457466125488
1666761304246456300,6.925456298828125,-1.5054175853729248,-0.2729341387748718,0.23044833540916443
1666761304266401300,6.9454013671875,-1.7603678703308105,-0.4198918044567108,0.228376567363739
1666761304286346200,6.96534619140625,-1.992460012435913,-0.5700491070747375,0.2657696604728699
1666761304306291500,6.98529150390625,-2.2330851554870605,-0.589617133140564,0.29584160447120667
1666761304326236200,7.005236083984375,-2.397514820098877,-0.5316665172576904,0.2480689287185669
1666761304346181400,7.025181396484375,-2.5212578773498535,-0.4408356845378876,0.08321760594844818
1666761304366126300,7.045126220703125,-2.6807448863983154,-0.4509439468383789,-0.06598205119371414
1666761304386071300,7.0650712890625,-2.833320379257202,-0.43647289276123047,-0.08362900465726852
1666761304406016300,7.085016357421875,-3.0240914821624756,-0.5019901990890503,0.051416561007499695
1666761304425961200,7.104961181640625,-3.3161754608154297,-0.49078184366226196,0.1958850920200348
1666761304445906400,7.124906494140625,-3.4762065410614014,-0.41646403074264526,0.19587144255638123
1666761304465851400,7.144851318359375,-3.6310129165649414,-0.31752556562423706,0.11926208436489105
1666761304485796000,7.164796142578125,-3.7545559406280518,-0.4690280258655548,0.046411607414484024
1666761304505741300,7.1847412109375,-3.7239255905151367,-0.4439515471458435,0.037567172199487686
1666761304525686300,7.204686279296875,-3.5815470218658447,-0.544931948184967,-0.004776485729962587
1666761304545631500,7.224631591796875,-3.380744457244873,-0.6121941804885864,-0.023943502455949783
1666761304565576200,7.244576171875,-3.2180702686309814,-0.7330042123794556,-0.010202059522271156
1666761304585521200,7.264521240234375,-3.0770833492279053,-0.7327921986579895,0.038831863552331924
1666761304605466400,7.28446630859375,-2.944089651107788,-0.5380850434303284,0.05349550023674965
1666761304625411300,7.304411376953125,-2.827908992767334,-0.5208304524421692,0.05716722458600998
1666761304645356500,7.3243564453125,-2.5952811241149902,-0.6508985757827759,0.014689486473798752
1666761304665301200,7.34430126953125,-2.316002130508423,-0.6740206480026245,-0.037926677614450455
1666761304685246200,7.36424609375,-2.024367332458496,-0.6993826627731323,-0.0013155320193618536
1666761304705191400,7.38419140625,-1.8347060680389404,-0.507127046585083,0.07488112896680832
1666761304725136400,7.404136474609375,-1.6998326778411865,-0.47018322348594666,0.09940196573734283
1666761304745081300,7.424081298828125,-1.5372577905654907,-0.5621451139450073,0.048330359160900116
1666761304765026300,7.4440263671875,-1.297028660774231,-0.4302096664905548,-0.0408441498875618
1666761304784970800,7.463970703125,-1.0977942943572998,-0.2062322199344635,-0.08928129076957703
1666761304804916000,7.483916015625,-0.8185245394706726,-0.10720375925302505,-0.12156490981578827
1666761304824861000,7.50386083984375,-0.5274987816810608,-0.10880088806152344,-0.12920042872428894
1666761304844804900,7.523804931640625,-0.3067997992038727,-0.06023510545492172,-0.12163377553224564
1666761304864749800,7.543749755859375,-0.013286370784044266,0.017140207812190056,-0.05605931207537651
1666761304884694800,7.56369482421875,0.32714414596557617,0.08520872890949249,-0.014470125548541546
1666761304904639700,7.5836396484375,0.634137749671936,0.18594373762607574,0.006675289943814278
1666761304924585000,7.6035849609375,0.9293097257614136,0.23495697975158691,0.044385407119989395
1666761304944529700,7.62352978515625,1.210461974143982,0.29513150453567505,0.03199359402060509
1666761304964475000,7.643474853515625,1.3610548973083496,0.3231029212474823,-0.0517764687538147
1666761304984419800,7.663419921875,1.4681679010391235,0.4251316487789154,-0.09447234869003296
1666761305004364800,7.68336474609375,1.754911184310913,0.51949542760849,-0.01389078889042139
1666761305024309800,7.703309814453125,2.0856595039367676,0.6027998924255371,0.10494307428598404
1666761305044254700,7.723254638671875,2.322909116744995,0.6460832953453064,0.10444295406341553
1666761305064200000,7.743199951171875,2.4386239051818848,0.5062704682350159,-0.02685781940817833
1666761305084145000,7.763144775390625,2.415804862976074,0.33243581652641296,-0.05052150785923004
1666761305104089900,7.78308984375,2.5241262912750244,0.3330581784248352,0.13499131798744202
1666761305124034800,7.803034912109375,2.8355460166931152,0.3358968496322632,0.30208274722099304
1666761305143979800,7.822979736328125,3.1818857192993164,0.34294211864471436,0.3749781548976898
1666761305163924700,7.8429248046875,3.4190475940704346,0.23938003182411194,0.6105905771255493
1666761305183870000,7.862869873046875,3.4239253997802734,0.26966801285743713,0.778204083442688
1666761305203814700,7.882814697265625,3.2811427116394043,0.31976568698883057,0.5916082262992859
1666761305223760000,7.902759765625,3.31274676322937,0.4177699089050293,0.26337799429893494
1666761305243704800,7.922704833984375,3.503264904022217,0.6201961040496826,0.11763609200716019
1666761305263649800,7.94264990234375,3.405195713043213,0.7285058498382568,0.16251026093959808
1666761305283594000,7.962593994140625,3.213632345199585,0.8376232385635376,0.20748089253902435
1666761305303538700,7.98253857421875,3.0117833614349365,0.8723379969596863,0.06538116931915283
1666761305323483600,8.002483642578126,2.9003045558929443,0.7908036112785339,-0.18124040961265564
1666761305343428900,8.022428955078125,2.909907341003418,0.7213223576545715,-0.25869348645210266
1666761305363373800,8.042373779296875,2.8431451320648193,0.659626841545105,-0.11959923058748245
1666761305383318800,8.06231884765625,2.640655279159546,0.5921595692634583,-0.025959130376577377
1666761305403263700,8.082263671875,2.379577159881592,0.5011647939682007,-0.047582127153873444
1666761305423208700,8.102208740234374,2.141275644302368,0.4105701446533203,-0.21410372853279114
1666761305443154000,8.12215380859375,1.9870530366897583,0.45502644777297974,-0.3979751765727997
1666761305463099000,8.142098876953124,1.8028994798660278,0.5238919854164124,-0.47185617685317993
1666761305483043800,8.1620439453125,1.5593266487121582,0.4066145122051239,-0.39672407507896423
1666761305502988800,8.18198876953125,1.232223391532898,0.33908355236053467,-0.27480727434158325
1666761305522933800,8.201933837890625,0.9165505170822144,0.24532842636108398,-0.1911119967699051
1666761305542879000,8.22187890625,0.5904272198677063,0.1669742912054062,-0.10050642490386963
1666761305562823700,8.24182373046875,0.25649598240852356,0.10375971347093582,-0.05464332178235054
1666761305582769000,8.261768798828125,-0.12471573799848557,-0.04628204554319382,-0.0428900308907032
1666761305602713900,8.2817138671875,-0.4825443625450134,-0.13088276982307434,-0.016555972397327423
1666761305622658800,8.301658935546875,-0.8117179870605469,-0.23792079091072083,0.06038467958569527
1666761305642603800,8.321603759765624,-1.1314146518707275,-0.2816735804080963,0.15250608325004578
1666761305662548700,8.341548828125,-1.4218864440917969,-0.29513663053512573,0.21518878638744354
1666761305682494000,8.361493896484374,-1.6827316284179688,-0.3657000958919525,0.21466365456581116
1666761305702439000,8.38143896484375,-1.9411635398864746,-0.49248915910720825,0.20965130627155304
1666761305722384600,8.401384521484376,-2.2175374031066895,-0.5735877156257629,0.23844429850578308
1666761305742329900,8.421329833984375,-2.5521950721740723,-0.5669370293617249,0.2558107376098633
1666761305762274800,8.44127490234375,-2.7563655376434326,-0.6220033764839172,0.21877144277095795
1666761305782220800,8.461220703125,-2.9115207195281982,-0.6594040989875793,0.18156923353672028
1666761305802166000,8.481166015625,-3.0624911785125732,-0.8170015215873718,0.20987023413181305
1666761305822110000,8.50110986328125,-3.2446627616882324,-0.8831978440284729,0.23985609412193298
1666761305842056000,8.521055908203126,-3.471667766571045,-0.8557560443878174,0.2851996421813965
1666761305861999900,8.540999755859374,-3.6834940910339355,-0.776244044303894,0.28770461678504944
1666761305881944800,8.56094482421875,-3.782602071762085,-0.7789171934127808,0.2728947699069977
1666761305901890000,8.58089013671875,-3.8143463134765625,-0.8271037340164185,0.23737595975399017
1666761305921835000,8.6008349609375,-3.7292227745056152,-0.952150285243988,0.08701575547456741
1666761305941780000,8.620780029296874,-3.5731148719787598,-0.9884266257286072,-0.17875078320503235
1666761305961725000,8.640724853515625,-3.499915361404419,-0.887686014175415,-0.42241370677948
1666761305981670000,8.660669921875,-3.39947509765625,-0.5649310946464539,-0.6259118914604187
1666761306001615000,8.680614990234375,-3.3854470252990723,-0.3787437081336975,-0.6566601395606995
1666761306021560000,8.70056005859375,-3.2339563369750977,-0.35635265707969666,-0.557553768157959
1666761306041504800,8.7205048828125,-2.9567489624023438,-0.45261621475219727,-0.45395320653915405
1666761306061450000,8.740449951171875,-2.7040553092956543,-0.2453729510307312,-0.36152827739715576
1666761306081395000,8.76039501953125,-2.4535677433013916,-0.16529586911201477,-0.3206406831741333
1666761306101340000,8.78033984375,-2.223447322845459,-0.22553473711013794,-0.45474687218666077
1666761306121284900,8.800284912109374,-2.068528652191162,-0.5771939754486084,-0.6164674162864685
1666761306141229800,8.820229736328125,-1.7835038900375366,-0.544066846370697,-0.5395187139511108
1666761306161175000,8.840175048828126,-1.4509634971618652,-0.14514267444610596,-0.1740562915802002
1666761306181120000,8.8601201171875,-1.0599583387374878,0.018345220014452934,0.08487436920404434
1666761306201064700,8.880064697265626,-0.7547765374183655,-0.10358837246894836,0.0901893749833107
1666761306221010000,8.900010009765625,-0.4060314893722534,-0.13879619538784027,0.01194067019969225
1666761306240955000,8.919954833984375,-0.06883161514997482,0.01873234659433365,0.046152520924806595
1666761306260900000,8.939900146484375,0.33707061409950256,0.2830502688884735,0.13384029269218445
1666761306280844800,8.9598447265625,0.7442834377288818,0.39400792121887207,0.1611642986536026
1666761306300789800,8.979789794921874,1.0735586881637573,0.3965313732624054,0.11631067842245102
1666761306320735000,8.99973486328125,1.2975142002105713,0.31863781809806824,-0.02113214321434498
1666761306340680000,9.019679931640624,1.5089473724365234,0.2433062493801117,-0.19177621603012085
1666761306360625200,9.039625244140625,1.7538756132125854,0.1595744639635086,-0.3149692118167877
1666761306380569900,9.05956982421875,2.1047017574310303,0.2574867606163025,-0.250562846660614
1666761306400514800,9.079514892578125,2.5040371417999268,0.34741315245628357,-0.22521252930164337
1666761306420460000,9.0994599609375,2.832102060317993,0.35726049542427063,-0.30035915970802307
1666761306440405000,9.119405029296875,3.1689419746398926,0.30963560938835144,-0.27448132634162903
1666761306460350000,9.139349853515625,3.5593836307525635,0.2522193193435669,-0.12423120439052582
1666761306480295000,9.159294921875,3.9654557704925537,0.35541272163391113,0.11093954741954803
1666761306500240000,9.179239990234375,4.2958478927612305,0.5022369027137756,0.3048294186592102
1666761306520185000,9.19918505859375,4.498870849609375,0.6659926176071167,0.3550933003425598
1666761306540129800,9.2191298828125,4.46226692199707,0.8962646722793579,0.4006500542163849
1666761306560075000,9.239074951171874,4.241599082946777,0.9176641702651978,0.5330281257629395
1666761306580020000,9.25902001953125,4.142131328582764,0.8289040327072144,0.542746365070343
1666761306599965000,9.27896484375,4.021040916442871,0.7659664154052734,0.22266454994678497
1666761306619910000,9.298909912109375,3.624455451965332,0.7474430203437805,-0.18017955124378204
1666761306639854800,9.318854736328126,3.331372022628784,0.6133319139480591,-0.3207240402698517
1666761306659800000,9.338800048828125,3.0785140991210938,0.50400310754776,-0.2173088788986206
1666761306679745000,9.3587451171875,2.7740988731384277,0.3772182762622833,-0.18250823020935059
1666761306699690000,9.37868994140625,2.540904998779297,0.48705369234085083,-0.2166435867547989
1666761306719635000,9.398635009765625,2.4177849292755127,0.6946890950202942,-0.10877326130867004
1666761306739580000,9.418579833984374,2.2981958389282227,0.6248985528945923,0.1061352863907814
1666761306759524900,9.43852490234375,2.0669469833374023,0.5222028493881226,0.23777727782726288
1666761306779469300,9.45846923828125,1.7109606266021729,0.48200908303260803,0.1800800859928131
1666761306799414300,9.478414306640625,1.422724723815918,0.35755184292793274,-0.015514016151428223
1666761306819359200,9.498359130859376,1.239290475845337,0.30262449383735657,-0.15279532968997955
1666761306839304200,9.51830419921875,1.1218761205673218,0.38163846731185913,-0.15643222630023956
1666761306859249200,9.538249267578125,0.937531054019928,0.36805301904678345,-0.004543549381196499
1666761306879194400,9.5581943359375,0.6430609822273254,0.15375645458698273,0.11724857240915298
1666761306899139000,9.57813916015625,0.253850519657135,-0.024115698412060738,0.08874989300966263
1666761306919084000,9.598083984375,-0.1616135984659195,-0.07476545125246048,0.013252354227006435
1666761306939029200,9.618029296875,-0.5123348832130432,-0.05312405526638031,-0.01408252865076065
1666761306958974200,9.63797412109375,-0.8485969305038452,-0.08966843038797379,0.03331102430820465
1666761306978919200,9.657919189453125,-1.2016704082489014,-0.21643337607383728,0.1155988946557045
1666761306998864100,9.677864013671876,-1.6243618726730347,-0.41057172417640686,0.18988147377967834
1666761307018809000,9.69780908203125,-2.0232372283935547,-0.5850796699523926,0.18867851793766022
1666761307038754300,9.71775439453125,-2.326151132583618,-0.5883574485778809,0.10352455079555511
1666761307058699000,9.737698974609375,-2.6219139099121094,-0.49404436349868774,-0.016869915649294853
1666761307078644200,9.757644287109375,-2.9591517448425293,-0.45133548974990845,-0.08338868618011475
1666761307098588200,9.777588134765624,-3.252215623855591,-0.6003803610801697,-0.12010219693183899
1666761307118533000,9.797533203125,-3.498298168182373,-0.7007913589477539,-0.079231858253479
1666761307138478300,9.817478271484376,-3.6727919578552246,-0.7315806150436401,0.04436436668038368
1666761307158423300,9.83742333984375,-3.787879228591919,-0.7428696155548096,0.17513461410999298
1666761307178368000,9.857367919921876,-3.8760550022125244,-0.7415394186973572,0.22769661247730255
1666761307198313200,9.877313232421875,-3.9877102375030518,-0.7388797998428345,0.17795385420322418
1666761307218258200,9.897258056640625,-4.037615776062012,-0.9427464008331299,0.08280083537101746
1666761307238203400,9.917203369140625,-3.9017226696014404,-0.9104365110397339,0.08341149240732193
1666761307258148000,9.937148193359375,-3.7909560203552246,-0.82180255651474,0.121200330555439
1666761307278093000,9.957093017578124,-3.749478816986084,-0.7613868713378906,0.05826298147439957
1666761307298038300,9.977038330078125,-3.702420711517334,-0.7206255197525024,-0.029599888250231743
1666761307317983200,9.996983154296874,-3.598295211791992,-0.7415470480918884,-0.22644959390163422
1666761307337928200,10.01692822265625,-3.2350478172302246,-0.6704762578010559,-0.3322632610797882
1666761307357873200,10.036873046875,-2.871288776397705,-0.4294408857822418,-0.26582735776901245
1666761307377818000,10.056818115234375,-2.4224202632904053,-0.20300160348415375,-0.24953621625900269
1666761307397763300,10.076763427734376,-2.0725021362304688,-0.16774040460586548,-0.41445687413215637
1666761307417708000,10.0967080078125,-1.8909653425216675,-0.17029589414596558,-0.6057072877883911
1666761307437653000,10.116653076171875,-1.750261902809143,-0.1534142792224884,-0.515934407711029
1666761307457598200,10.13659814453125,-1.60092294216156,-0.2095150351524353,-0.2720590829849243
1666761307477543200,10.156543212890625,-1.4805182218551636,-0.27372583746910095,-0.06433549523353577
1666761307497488400,10.17648828125,-1.3598390817642212,-0.22483685612678528,0.03407129645347595
1666761307517433000,10.19643310546875,-1.2433781623840332,-0.1661560833454132,0.12422414124011993
1666761307537378000,10.2163779296875,-1.1133941411972046,-0.23637107014656067,0.08623871952295303
1666761307557323300,10.2363232421875,-0.9130192995071411,-0.25500115752220154,0.010769100859761238
1666761307577268200,10.256268310546876,-0.7793359160423279,-0.2620496451854706,0.053140804171562195
1666761307597213200,10.276213134765625,-0.6345846056938171,-0.16436801850795746,0.23197518289089203
1666761307617158100,10.296158203125,-0.46548184752464294,-0.11559709906578064,0.3082956075668335
1666761307637103000,10.31610302734375,-0.27903079986572266,-0.1481163054704666,0.18191125988960266
1666761307657048300,10.33604833984375,-0.10765163600444794,-0.17043812572956085,-0.010925115086138248
1666761307676993000,10.355992919921874,0.1119081899523735,-0.03406696021556854,-0.05155103653669357
1666761307696938200,10.375938232421875,0.4231310784816742,0.10064500570297241,0.01570093259215355
1666761307716883200,10.39588330078125,0.7999910116195679,0.2400369644165039,0.07627419382333755
1666761307736828200,10.415828125,1.2043063640594482,0.2863997220993042,0.10940529406070709
1666761307756773000,10.435773193359376,1.582929253578186,0.25871163606643677,0.055725984275341034
1666761307776718000,10.455718017578125,1.9277747869491577,0.252337783575058,-0.09059994667768478
1666761307796663300,10.475663330078126,2.2786097526550293,0.2800804376602173,-0.1445993185043335
1666761307816608500,10.4956083984375,2.6769330501556396,0.4439961314201355,-0.014041928574442863
1666761307836553200,10.51555322265625,3.0311176776885986,0.53811115026474,0.11459004878997803
1666761307856498200,10.535498291015625,3.2985241413116455,0.5151770710945129,0.13697156310081482
1666761307876443400,10.555443359375,3.6608660221099854,0.41192084550857544,0.10544417053461075
1666761307896388400,10.575388427734374,3.9426188468933105,0.313772976398468,0.11574497818946838
1666761307916333300,10.595333251953125,4.175576210021973,0.3103061616420746,0.19065101444721222
1666761307936278300,10.6152783203125,4.149242401123047,0.4399029016494751,0.2732069194316864
1666761307956223200,10.63522314453125,3.705474853515625,0.1867019534111023,0.23169369995594025
1666761307976168400,10.65516845703125,3.2808029651641846,0.08913114666938782,-0.07773905992507935
1666761307996113400,10.675113525390625,2.987502336502075,-0.07767024636268616,-0.5376758575439453
1666761308016058400,10.695058349609376,2.570392370223999,-0.3195855915546417,-0.5975250005722046
1666761308036003300,10.71500341796875,1.9560046195983887,-0.38844308257102966,-0.2058495581150055
1666761308055948300,10.7349482421875,1.3201074600219727,-0.22888419032096863,0.12783026695251465
1666761308075893500,10.7548935546875,0.8538244366645813,-0.07217186689376831,0.006467844359576702
1666761308095838200,10.774838134765625,0.5794137716293335,0.03497518599033356,-0.2318871170282364
1666761308115783400,10.794783447265624,0.4503968060016632,0.09531806409358978,-0.2982228100299835
1666761308135728400,10.814728271484375,0.293660044670105,0.3397490978240967,-0.18548232316970825
1666761308155673300,10.83467333984375,-0.06458282470703125,0.44772934913635254,0.3810899555683136
1666761308175618300,10.854618408203125,-0.3069273829460144,0.045447710901498795,0.2819114029407501
1666761308195563300,10.874563232421876,-0.4117977023124695,0.15644317865371704,0.04772729426622391
1666761308215508500,10.894508544921875,-0.3675636351108551,0.29971471428871155,-0.1205807700753212
1666761308235453400,10.914453369140626,-0.4767360985279083,0.36925607919692993,-0.031004805117845535
1666761308255398400,10.9343984375,-0.508591890335083,0.3597748577594757,-0.36145496368408203
1666761308275343400,10.95434326171875,-0.5808714032173157,0.09648846089839935,-0.7698987126350403
1666761308295288300,10.974288330078124,-0.587206244468689,0.19280043244361877,-0.4878614842891693
1666761308315233500,10.994233642578125,-0.4957239627838135,0.2970512807369232,-0.31066152453422546
1666761308335178500,11.014178466796874,-0.4247478246688843,0.2835007905960083,-0.3719545304775238
1666761308355123200,11.034123291015625,-0.36653971672058105,0.2964920401573181,-0.4404834806919098
1666761308375068400,11.054068359375,-0.3172830045223236,0.19416630268096924,-0.4391125738620758
1666761308395013400,11.074013427734375,-0.26094910502433777,0.15587109327316284,-0.3266688287258148
1666761308414958300,11.093958251953126,-0.22134855389595032,0.11289164423942566,-0.2623768448829651
1666761308434903300,11.1139033203125,-0.21348439157009125,0.143325537443161,-0.1789083033800125
1666761308454848300,11.13384814453125,-0.2008783519268036,0.17170310020446777,-0.1118883341550827
1666761308474793500,11.15379345703125,-0.1832905262708664,0.1737649291753769,-0.09875249117612839
1666761308494738400,11.173738525390625,-0.16759097576141357,0.1788339763879776,-0.13783816993236542
1666761308514683100,11.19368310546875,-0.1389438807964325,0.2324063926935196,-0.06530538201332092
1666761308534627300,11.21362744140625,-0.16862164437770844,0.37795716524124146,0.257497638463974
1666761308554572300,11.233572265625,-0.23396709561347961,-0.12645618617534637,-0.13297584652900696
1666761308574517200,11.253517333984375,-0.29574310779571533,-0.25296351313591003,-0.31168511509895325
1666761308594462500,11.27346240234375,-0.2748095989227295,0.20732799172401428,-0.02764551341533661
