time,seconds_elapsed,z,y,x
1666761357155431200,0.01243115234375,0.0810466930270195,-0.042347922921180725,0.09837187081575394
1666761357175376400,0.03237646484375,0.09004521369934082,-0.03092857450246811,0.18207788467407227
1666761357195321300,0.0523212890625,0.08457189053297043,-0.04573116451501846,0.2204163372516632
1666761357215266600,0.0722666015625,0.07906185835599899,-0.006375727243721485,0.19558276236057281
1666761357235211300,0.092211181640625,0.03434986248612404,-0.014880971051752567,0.17205213010311127
1666761357255156200,0.11215625,-0.003780462546274066,0.05049359053373337,0.11099029332399368
1666761357275102500,0.1321025390625,-0.019510094076395035,0.0475458949804306,0.058923475444316864
1666761357295047200,0.152047119140625,-0.03123551607131958,0.01285145990550518,0.08117020130157471
1666761357314992400,0.171992431640625,-0.044913023710250854,-0.03831341117620468,0.1209711804986
1666761357334937300,0.191937255859375,-0.05941371992230415,-0.033638983964920044,0.14612345397472382
1666761357354882600,0.211882568359375,-0.05652983486652374,-0.0307447612285614,0.1625618189573288
1666761357374827300,0.2318271484375,-0.04550284892320633,0.03494619205594063,0.14879629015922546
1666761357394772200,0.251772216796875,-0.018357710912823677,-0.03919697552919388,0.08531573414802551
1666761357414717400,0.271717529296875,0.01708385907113552,-0.10707365721464157,0.04616769403219223
1666761357434662400,0.291662353515625,-0.0003200019709765911,-0.1464749127626419,0.036525506526231766
1666761357454607400,0.311607421875,-0.020913811400532722,-0.03655458614230156,0.05329681560397148
1666761357474552300,0.33155224609375,0.01561247743666172,-0.02794046141207218,-0.00244611082598567
1666761357494497300,0.351497314453125,0.09618470072746277,-0.08964572101831436,-0.09521734714508057
1666761357514442500,0.3714423828125,0.12612870335578918,-0.10632484406232834,-0.08626439422369003
1666761357534388200,0.39138818359375,0.1299598664045334,0.02309616655111313,0.023148121312260628
1666761357554333400,0.41133349609375,0.10935534536838531,0.1703493744134903,0.1253262162208557
1666761357574278400,0.4312783203125,0.08013758808374405,0.2860165536403656,0.12859679758548737
1666761357594223400,0.451223388671875,0.06768541038036346,0.3997560143470764,0.04634476825594902
1666761357614168300,0.471168212890625,0.07400769740343094,0.563047468662262,-0.029685311019420624
1666761357634113300,0.49111328125,0.09581800550222397,0.6512107849121094,-0.011915458366274834
1666761357654058500,0.51105859375,0.1352768838405609,0.8368268013000488,0.030289538204669952
1666761357674003500,0.53100341796875,0.1728546917438507,1.019787311553955,0.04501562565565109
1666761357693948200,0.5509482421875,0.19208912551403046,1.2176264524459839,0.034615639597177505
1666761357713893400,0.570893310546875,0.19809360802173615,1.4314005374908447,-0.033805131912231445
1666761357733838300,0.59083837890625,0.13221697509288788,1.5862261056900024,-0.07389093935489655
1666761357753783600,0.610783447265625,0.06959708034992218,1.809213399887085,-0.08042524009943008
1666761357773728300,0.630728271484375,0.009130304679274559,1.9080145359039307,-0.004950385540723801
1666761357793674500,0.650674560546875,-0.023249637335538864,1.951760172843933,0.13677926361560822
1666761357813619500,0.670619384765625,-0.025847366079688072,2.031100034713745,0.09180083870887756
1666761357833564200,0.690564208984375,-0.03596019744873047,1.9921388626098633,-0.09583699703216553
1666761357853508900,0.7105087890625,-0.028045443817973137,1.9513071775436401,-0.24445262551307678
1666761357873453800,0.730453857421875,0.004641849081963301,1.9286748170852661,-0.2740575671195984
1666761357893399000,0.75039892578125,0.015662644058465958,1.9559365510940552,-0.16380073130130768
1666761357913344000,0.770343994140625,0.038413312286138535,1.8996481895446777,-0.05490618199110031
1666761357933289000,0.7902890625,0.08286423236131668,1.838394284248352,-0.07710185647010803
1666761357953234000,0.81023388671875,0.06837150454521179,1.9070221185684204,-0.19067516922950745
1666761357973179000,0.830178955078125,0.0189223513007164,1.9446979761123657,-0.20161202549934387
1666761357993124000,0.8501240234375,0.0505213737487793,1.9365620613098145,-0.03598519042134285
1666761358013068800,0.87006884765625,0.021655049175024033,1.762102723121643,0.11667037755250931
1666761358033014000,0.890013916015625,0.02427150122821331,1.5837428569793701,0.09283912926912308
1666761358052960000,0.9099599609375,0.033769603818655014,1.4274779558181763,-0.12398888915777206
1666761358072905000,0.929905029296875,0.06200585141777992,1.3104584217071533,-0.23381364345550537
1666761358092850000,0.949849853515625,0.0435459241271019,1.1812880039215088,-0.09025502949953079
1666761358112795000,0.969794921875,-0.003355905646458268,0.949944257736206,0.11631257832050323
1666761358132740000,0.989739990234375,-0.0024493515957146883,0.6488522291183472,0.22925898432731628
1666761358152684800,1.009684814453125,0.006496438290923834,0.3666817843914032,0.20354768633842468
1666761358172630000,1.029630126953125,0.009160514920949936,0.14372752606868744,0.014389853924512863
1666761358192575000,1.049574951171875,-0.05410001799464226,-0.1251593679189682,-0.138242706656456
1666761358212520000,1.06952001953125,-0.09231770783662796,-0.44153544306755066,-0.08559414744377136
1666761358232465200,1.089465087890625,-0.08752033859491348,-0.7081460356712341,0.09438072890043259
1666761358252409900,1.109409912109375,-0.12125048786401749,-1.0247178077697754,0.17887121438980103
1666761358272354800,1.129354736328125,-0.14674244821071625,-1.4565002918243408,0.13005739450454712
1666761358292300000,1.149300048828125,-0.1511077731847763,-1.9080941677093506,0.04782165586948395
1666761358312245800,1.169245849609375,-0.12049421668052673,-2.2624406814575195,-0.001245139166712761
1666761358332191000,1.18919091796875,-0.1368531733751297,-2.476816177368164,0.04261559993028641
1666761358352136000,1.209135986328125,-0.1762913465499878,-2.6112658977508545,0.1570286899805069
1666761358372081200,1.2290810546875,-0.2189040333032608,-2.6416072845458984,0.2961359918117523
1666761358392025900,1.24902587890625,-0.19996331632137299,-2.603318214416504,0.5046154260635376
1666761358411970800,1.268970703125,-0.1567848026752472,-2.788257360458374,0.5873391032218933
1666761358431916000,1.288916015625,-0.12133146077394485,-3.0915780067443848,0.5480560660362244
1666761358451861000,1.308861083984375,-0.04272112995386124,-3.430696964263916,0.43692365288734436
1666761358471806000,1.328805908203125,0.006988891400396824,-3.476628303527832,0.2885185778141022
1666761358491751000,1.3487509765625,-0.1581827998161316,-3.2076945304870605,0.1661146879196167
1666761358511696000,1.36869580078125,-0.3608565032482147,-3.142977476119995,-0.10453934222459793
1666761358531641000,1.38864111328125,-0.401400089263916,-2.987544298171997,-0.29069700837135315
1666761358551585800,1.408585693359375,-0.37997299432754517,-3.0568323135375977,-0.2734951674938202
1666761358571531000,1.428531005859375,-0.36642637848854065,-3.355638027191162,-0.15583734214305878
1666761358591477000,1.44847705078125,-0.32092976570129395,-3.0699126720428467,-0.089147187769413
1666761358611422000,1.468421875,-0.2744840383529663,-2.674846887588501,-0.10124626755714417
1666761358631367000,1.488366943359375,-0.16331228613853455,-2.9748594760894775,-0.0008351188153028488
1666761358651311900,1.508311767578125,-0.008551288396120071,-3.056927442550659,0.0033524094615131617
1666761358671257000,1.528257080078125,0.05987115204334259,-2.6969006061553955,-0.3656746447086334
1666761358691202000,1.5482021484375,0.07875579595565796,-2.4242658615112305,-0.44408151507377625
1666761358711147000,1.56814697265625,0.011623336933553219,-2.361100196838379,-0.31465262174606323
1666761358731092000,1.588092041015625,-0.08996632695198059,-2.0768446922302246,-0.19655963778495789
1666761358751037000,1.608036865234375,-0.21182574331760406,-1.659757375717163,-0.11123786866664886
1666761358770982100,1.627982177734375,-0.22723247110843658,-1.6068475246429443,-0.21714340150356293
1666761358790926800,1.6479267578125,-0.1465856432914734,-1.318041443824768,-0.07082939893007278
1666761358810871800,1.667871826171875,-0.08871481567621231,-0.9361317753791809,0.05743633955717087
1666761358830816800,1.687816650390625,-0.058397941291332245,-0.7330490350723267,0.23222367465496063
1666761358850762800,1.7077626953125,-0.03132562339305878,-0.47322648763656616,0.27035966515541077
1666761358870707700,1.727707763671875,0.03962331637740135,-0.3453492522239685,0.04685398191213608
1666761358890653000,1.74765283203125,0.17173375189304352,-0.29737022519111633,-0.046690475195646286
1666761358910598000,1.767597900390625,0.17989175021648407,-0.049308646470308304,0.05556947737932205
1666761358930542800,1.78754296875,0.1466227024793625,0.23069541156291962,0.22408142685890198
1666761358950487800,1.80748779296875,0.09147582948207855,0.5882048010826111,0.2744140923023224
1666761358970432800,1.827432861328125,0.032025840133428574,0.7371266484260559,0.021380728110671043
1666761358990378000,1.8473779296875,0.07059814035892487,0.8677703738212585,-0.17923402786254883
1666761359010322700,1.86732275390625,0.15906277298927307,1.1464959383010864,-0.22184331715106964
1666761359030267600,1.887267578125,0.2100014090538025,1.5348799228668213,-0.11673741787672043
1666761359050212900,1.907212890625,0.2159835547208786,1.9123787879943848,-0.1130647137761116
1666761359070157800,1.92715771484375,0.2304963618516922,2.1631393432617188,-0.18457959592342377
1666761359090102800,1.947102783203125,0.2891364097595215,2.405665159225464,-0.11279943585395813
1666761359110047700,1.9670478515625,0.31735947728157043,2.58225679397583,-0.038566023111343384
1666761359129994000,1.986993896484375,0.3289593756198883,2.805680751800537,-0.14755652844905853
1666761359149939000,2.00693896484375,0.4265567362308502,3.0696630477905273,-0.20685386657714844
1666761359169883600,2.026883544921875,0.446362167596817,3.187220573425293,-0.09523298591375351
1666761359189828900,2.046828857421875,0.45559197664260864,3.3319735527038574,0.018425732851028442
1666761359209773800,2.06677392578125,0.5721102356910706,3.400283098220825,0.10562639683485031
1666761359229719000,2.086718994140625,0.5566027164459229,3.3951683044433594,0.1665898561477661
1666761359249663700,2.106663818359375,0.4341190755367279,3.3910982608795166,0.17401230335235596
1666761359269608700,2.126608642578125,0.34395405650138855,3.4069883823394775,0.14302900433540344
1666761359289554000,2.146553955078125,0.31117886304855347,3.4933979511260986,0.13754409551620483
1666761359309499000,2.166498779296875,0.3327140808105469,3.5777952671051025,0.13893285393714905
1666761359329443800,2.18644384765625,0.3393447697162628,3.643650531768799,0.26915442943573
1666761359349388800,2.206388916015625,0.3722028434276581,3.771634101867676,0.44725266098976135
1666761359369333800,2.226333740234375,0.2865064740180969,3.636544942855835,0.6792430877685547
1666761359389279000,2.246279052734375,0.05801792070269585,3.271977663040161,0.9044151902198792
1666761359409223700,2.2662236328125,-0.06311936676502228,2.980659008026123,0.7916947603225708
1666761359429170000,2.286169921875,-0.13107256591320038,2.8120901584625244,0.3223728537559509
1666761359449115000,2.306114990234375,-0.046893008053302765,2.4497225284576416,-0.1495930254459381
1666761359469059800,2.326059814453125,0.08276345580816269,1.7875497341156006,-0.29298707842826843
1666761359489004800,2.3460048828125,0.16390380263328552,1.3207132816314697,-0.2776058316230774
1666761359508949800,2.36594970703125,0.17762048542499542,1.2074835300445557,-0.3014447093009949
1666761359528895000,2.38589501953125,0.15039068460464478,1.1402536630630493,-0.33778321743011475
1666761359548839700,2.405839599609375,0.12006603181362152,1.244238018989563,-0.40492236614227295
1666761359568784600,2.42578466796875,0.061841342598199844,1.208083152770996,-0.4562870264053345
1666761359588729900,2.445729736328125,-0.003598287235945463,1.0067286491394043,-0.40522709488868713
1666761359608674800,2.4656748046875,-0.02193976379930973,0.9350818395614624,-0.4029809236526489
1666761359628620000,2.4856201171875,-0.01091914065182209,1.0281288623809814,-0.5521169900894165
1666761359648564700,2.505564697265625,-0.044631972908973694,1.1815837621688843,-0.6317731142044067
1666761359668509700,2.525509765625,-0.05865732580423355,1.332487940788269,-0.5705409049987793
1666761359688455000,2.545454833984375,-0.10901612788438797,1.4368270635604858,-0.4329856336116791
1666761359708399900,2.56539990234375,-0.10593534260988235,1.2368340492248535,-0.18384738266468048
1666761359728345900,2.585345947265625,-0.050352949649095535,0.7429805397987366,0.0684681236743927
1666761359748290800,2.605290771484375,-0.04523692652583122,0.19337105751037598,0.13938283920288086
1666761359768236000,2.625236083984375,-0.08500184863805771,-0.36430227756500244,0.08576928824186325
1666761359788180700,2.6451806640625,-0.10619887709617615,-0.7197005152702332,0.08659861236810684
1666761359808125700,2.665125732421875,-0.15207529067993164,-0.9738048911094666,0.23811140656471252
1666761359828071000,2.68507080078125,-0.253479540348053,-1.3275173902511597,0.47274670004844666
1666761359848016000,2.705015869140625,-0.27620503306388855,-1.6822725534439087,0.5438286066055298
1666761359867960800,2.7249609375,-0.25720831751823425,-2.072746753692627,0.4669952988624573
1666761359887905800,2.74490576171875,-0.20384690165519714,-2.5831446647644043,0.4239303469657898
1666761359907850800,2.764850830078125,-0.1431804597377777,-3.0551581382751465,0.4262016713619232
1666761359927796000,2.7847958984375,-0.12773141264915466,-3.64064359664917,0.4268662631511688
1666761359947740700,2.80474072265625,-0.12729007005691528,-3.7295081615448,0.11411689966917038
1666761359967686000,2.824685791015625,-0.12023891508579254,-3.3974552154541016,-0.3164491057395935
1666761359987630800,2.844630859375,-0.2103395164012909,-3.3317742347717285,-0.46165531873703003
1666761360007575800,2.864575927734375,-0.2886846959590912,-3.566054344177246,-0.14225265383720398
1666761360027521800,2.884521728515625,-0.26563507318496704,-3.7076241970062256,0.2524254024028778
1666761360047466800,2.904466796875,-0.3368080258369446,-3.8766427040100098,0.25869786739349365
1666761360067412000,2.924411865234375,-0.3651244640350342,-4.1207122802734375,0.17038917541503906
1666761360087357000,2.94435693359375,-0.29231226444244385,-4.296639919281006,0.12738628685474396
1666761360107302000,2.964302001953125,-0.23229511082172394,-4.395735740661621,0.22386027872562408
1666761360127246800,2.984246826171875,-0.17174871265888214,-4.409502983093262,0.3539247214794159
1666761360147191800,3.00419189453125,-0.2602144181728363,-4.423099040985107,0.37771111726760864
1666761360167137000,3.024136962890625,-0.3976077437400818,-4.015746116638184,0.2812718451023102
1666761360187081700,3.044081787109375,-0.39496320486068726,-3.637634038925171,0.236554816365242
1666761360207026700,3.064026611328125,-0.2917366325855255,-3.506363868713379,0.11182128638029099
1666761360226972000,3.083971923828125,-0.1469145268201828,-3.248908758163452,0.020043080672621727
1666761360246916900,3.103916748046875,-0.07003496587276459,-2.9512813091278076,0.02888866886496544
1666761360266861800,3.12386181640625,0.14499257504940033,-2.5152087211608887,0.20356960594654083
1666761360286806800,3.143806884765625,0.3079374432563782,-2.687483549118042,0.4655807912349701
1666761360306751700,3.163751708984375,0.3509271442890167,-2.4616026878356934,0.32643282413482666
1666761360326697000,3.183697021484375,0.3689405620098114,-2.4399149417877197,-0.05879294499754906
1666761360346642700,3.203642578125,0.44642287492752075,-2.396350383758545,-0.36998799443244934
1666761360366588000,3.223587890625,0.400687575340271,-1.8353594541549683,-0.3073762357234955
1666761360386532900,3.243532958984375,0.22683881223201752,-1.2846530675888062,-0.20277780294418335
1666761360406477800,3.263477783203125,0.16617968678474426,-0.8101648688316345,-0.13573786616325378
1666761360426422800,3.2834228515625,0.10855142027139664,-0.47378623485565186,-0.2084064483642578
1666761360446367700,3.30336767578125,0.16670137643814087,-0.4234446883201599,-0.20876097679138184
1666761360466313000,3.32331298828125,0.19485655426979065,-0.2543817162513733,-0.18044136464595795
1666761360486257700,3.343257568359375,0.20514051616191864,-0.07108284533023834,-0.08810218423604965
1666761360506203000,3.363202880859375,0.15170696377754211,0.3360764980316162,-0.07836373895406723
1666761360526147800,3.38314794921875,0.06721144914627075,0.6900193691253662,-0.14641937613487244
1666761360546092800,3.4030927734375,-0.007264991290867329,0.9667999744415283,-0.22368618845939636
1666761360566038000,3.4230380859375,-0.0495089516043663,1.2608989477157593,-0.19699087738990784
1666761360585982700,3.442982666015625,-0.0682629719376564,1.5889335870742798,-0.13836653530597687
1666761360605928000,3.462927978515625,-0.011297816410660744,1.914821982383728,-0.0982813909649849
1666761360625873000,3.482872802734375,0.01596762239933014,2.284451484680176,-0.1484612375497818
1666761360645819000,3.50281884765625,-0.0012767568696290255,2.7469639778137207,-0.22202347218990326
1666761360665763800,3.522763916015625,-0.012567861936986446,2.8760533332824707,-0.2426176518201828
1666761360685708800,3.542708740234375,0.0019871736876666546,2.9410400390625,-0.0908876582980156
1666761360705654000,3.562654052734375,-0.021094176918268204,3.108147621154785,0.06246140971779823
1666761360725598700,3.5825986328125,-0.06344336271286011,3.491523027420044,0.03994147107005119
1666761360745543700,3.602543701171875,0.015214500948786736,3.6140971183776855,-0.043987907469272614
1666761360765489000,3.622489013671875,0.11300873756408691,3.284210205078125,0.18742622435092926
1666761360785433900,3.642433837890625,0.12821422517299652,3.114204168319702,0.4910300672054291
1666761360805378800,3.66237890625,0.006171703338623047,2.9382271766662598,0.3875442445278168
1666761360825323800,3.68232373046875,-0.012769380584359169,2.7701175212860107,0.15475264191627502
1666761360845268700,3.702268798828125,0.07152462750673294,2.8788323402404785,0.051108863204717636
1666761360865213700,3.722213623046875,0.20795856416225433,3.2021188735961914,-0.006768629886209965
1666761360885158700,3.74215869140625,0.2440202832221985,3.2932801246643066,0.01545525062829256
1666761360905103600,3.762103515625,0.32881325483322144,3.2645962238311768,-0.011582384817302227
1666761360925048600,3.782048583984375,0.4201984107494354,3.306353807449341,0.01981942728161812
1666761360944994800,3.801994873046875,0.4756699204444885,3.708988904953003,0.17430570721626282
1666761360964939500,3.821939453125,0.46791377663612366,3.7759451866149902,0.22786696255207062
1666761360984884700,3.841884765625,0.4562695622444153,3.5189945697784424,0.03127867355942726
1666761361004829700,3.86182958984375,0.5620045065879822,3.383333921432495,-0.22160464525222778
1666761361024775000,3.88177490234375,0.6186658143997192,3.2360522747039795,-0.32724347710609436
1666761361044719600,3.9017197265625,0.5578721165657043,3.0009756088256836,-0.24383428692817688
1666761361064664600,3.92166455078125,0.4722253978252411,2.918426513671875,-0.058197081089019775
1666761361084609800,3.94160986328125,0.2831002473831177,2.634415626525879,0.07118003815412521
1666761361104552700,3.961552734375,0.09550110250711441,2.27138090133667,0.07630989700555801
1666761361124497700,3.98149755859375,-0.004704100079834461,1.81638503074646,0.09430693089962006
1666761361144443600,4.001443603515625,-0.08602853119373322,1.441861867904663,0.14268016815185547
1666761361164388600,4.021388671875,-0.10077375918626785,1.2715355157852173,0.14116020500659943
1666761361184333800,4.041333740234375,-0.157105952501297,1.005059838294983,0.041722141206264496
1666761361204278800,4.06127880859375,-0.24172274768352509,0.8191936612129211,0.10046860575675964
1666761361224223500,4.081223388671875,-0.28739604353904724,0.7022458910942078,0.23407746851444244
1666761361244168700,4.101168701171875,-0.29831385612487793,0.4814574718475342,0.35828548669815063
1666761361264113700,4.12111376953125,-0.25051775574684143,0.077421173453331,0.3127782344818115
1666761361284059000,4.141058837890625,-0.1758953332901001,-0.2543276250362396,0.14877048134803772
1666761361304003800,4.16100390625,-0.1336313635110855,-0.39380747079849243,0.14152339100837708
1666761361323948500,4.180948486328125,-0.13243240118026733,-0.5594012141227722,0.19766148924827576
1666761361343893800,4.200893798828125,-0.14414608478546143,-0.8037042021751404,0.19845372438430786
1666761361363838700,4.220838623046875,-0.1830815076828003,-1.11455500125885,0.08162571489810944
1666761361383784000,4.240783935546875,-0.25140827894210815,-1.4321931600570679,-0.0707569569349289
1666761361403728600,4.260728759765625,-0.3441873788833618,-1.6846669912338257,-0.04885482415556908
1666761361423673600,4.280673583984375,-0.399112343788147,-1.8835060596466064,0.11591756343841553
1666761361443618800,4.300618896484375,-0.42012062668800354,-2.4941437244415283,0.28621137142181396
1666761361463563800,4.320563720703125,-0.3566831648349762,-3.1879942417144775,0.36467882990837097
1666761361483509800,4.340509765625,-0.20335841178894043,-3.5482285022735596,0.188145250082016
1666761361503454700,4.360454833984375,-0.08382872492074966,-3.7241299152374268,0.08352237939834595
1666761361523399700,4.380399658203125,-0.09255490452051163,-3.951674699783325,0.20186033844947815
1666761361543344600,4.4003447265625,-0.05799991264939308,-4.203182220458984,0.3342045247554779
1666761361563289600,4.42028955078125,0.019431916996836662,-4.43545389175415,0.4420981705188751
1666761361583235800,4.44023583984375,0.16216273605823517,-4.602010250091553,0.4909270405769348
1666761361603180500,4.4601806640625,0.25150755047798157,-4.5419111251831055,0.36314791440963745
1666761361623125800,4.480125732421875,0.26202404499053955,-4.1148200035095215,0.23107676208019257
1666761361643070700,4.50007080078125,0.08292464911937714,-3.8983945846557617,0.0991612896323204
1666761361663015700,4.520015625,-0.0964350476861,-3.688948631286621,0.15676935017108917
1666761361682960600,4.539960693359375,-0.11602529883384705,-3.8601977825164795,0.5410003066062927
1666761361702905600,4.559905517578125,-0.11726566404104233,-4.2093281745910645,0.5595195889472961
1666761361722851800,4.579851806640625,-0.045003991574048996,-4.169022560119629,0.2146786004304886
1666761361742796500,4.599796630859375,0.057959359139204025,-3.5884454250335693,-0.14992782473564148
1666761361762741800,4.61974169921875,0.0338730663061142,-3.260361433029175,0.09075241535902023
1666761361782686700,4.639686767578125,0.14715619385242462,-3.1512930393218994,0.08738017827272415
1666761361802631700,4.659631591796875,0.20771194994449615,-2.803473472595215,-0.13437482714653015
1666761361822576600,4.67957666015625,0.3089972138404846,-2.144115447998047,-0.10119947046041489
1666761361842521900,4.69952197265625,0.2763267159461975,-1.8708786964416504,-0.3944495916366577
1666761361862466800,4.719466796875,0.28818556666374207,-1.7982946634292603,-0.4806460738182068
1666761361882411800,4.739411865234375,0.3147503435611725,-1.445167064666748,-0.36059367656707764
1666761361902356700,4.759356689453125,0.23948438465595245,-1.1235686540603638,-0.5477634072303772
1666761361922301700,4.7793017578125,0.19362516701221466,-1.195886492729187,-0.5999246835708618
1666761361942247000,4.799246826171875,0.17780029773712158,-0.9681383967399597,-0.3311469554901123
1666761361962192000,4.81919189453125,0.12251664698123932,-0.7643154859542847,-0.19296474754810333
1666761361982136800,4.83913671875,0.13576138019561768,-0.5958123803138733,-0.23930025100708008
1666761362002081800,4.859081787109375,0.09065531194210052,-0.4978632926940918,-0.18777240812778473
1666761362022027800,4.87902783203125,0.07475247979164124,-0.17082579433918,-0.06486067175865173
1666761362041973000,4.898972900390625,0.03132590651512146,0.2826008200645447,0.0648999884724617
1666761362061917700,4.918917724609375,-0.057227972894907,0.6423779726028442,0.03300308436155319
1666761362081863000,4.93886279296875,-0.08540726453065872,0.9396154880523682,-0.03975457325577736
1666761362101807900,4.958807861328125,-0.06872516870498657,1.2547320127487183,-0.03858252987265587
1666761362121752800,4.9787529296875,0.0004661465063691139,1.4023150205612183,0.09758060425519943
1666761362141697800,4.99869775390625,0.0593649297952652,1.504609227180481,0.2644108235836029
1666761362161642800,5.018642822265625,0.04501061514019966,1.8842952251434326,0.3924786448478699
1666761362181588000,5.038587890625,-0.07587750256061554,2.504695415496826,0.2939121425151825
1666761362201533000,5.058532958984375,-0.1716749519109726,3.005625009536743,0.039554812014102936
1666761362221477600,5.0784775390625,-0.19199182093143463,3.1924569606781006,-0.2752944827079773
1666761362241422800,5.0984228515625,-0.044853199273347855,3.2793948650360107,-0.40225544571876526
1666761362261367800,5.118367919921875,0.03246437385678291,3.281249761581421,-0.2815781235694885
1666761362281313000,5.13831298828125,0.014163979329168797,3.398545980453491,-0.21294373273849487
1666761362301257700,5.1582578125,0.09845782071352005,3.5065393447875977,-0.172569140791893
1666761362321204000,5.178203857421875,0.23619697988033295,3.436414957046509,-0.024636659771203995
1666761362341149000,5.19814892578125,0.48125049471855164,3.3898720741271973,0.2172381728887558
1666761362361093600,5.21809375,0.2985137104988098,3.622037410736084,0.3912133574485779
1666761362381038800,5.238038818359375,0.15218184888362885,3.736438274383545,0.3255653381347656
1666761362400983800,5.25798388671875,0.20702682435512543,4.136800289154053,-0.1218324825167656
1666761362420928800,5.2779287109375,0.23022599518299103,4.355596542358398,-0.503677487373352
1666761362440874000,5.2978740234375,0.2455158829689026,3.962484359741211,-0.19920291006565094
1666761362460818700,5.317818603515625,0.31838399171829224,3.5664079189300537,0.38413339853286743
1666761362480764000,5.337763916015625,0.3039371967315674,3.146000385284424,0.6153972148895264
1666761362500708900,5.357708984375,0.33898791670799255,2.954066276550293,0.5072185397148132
1666761362520653800,5.37765380859375,0.4299803674221039,2.947974443435669,0.4911050796508789
1666761362540598800,5.397598876953125,0.341724157333374,2.7603814601898193,0.6221033930778503
1666761362560543700,5.417543701171875,0.2197204828262329,2.6727700233459473,0.4608866572380066
1666761362580489000,5.437489013671875,0.18921829760074615,2.338846445083618,0.2645219564437866
1666761362600434000,5.457433837890625,0.23341277241706848,2.190768241882324,0.23354890942573547
1666761362620378600,5.477378662109375,0.2473626732826233,1.9960317611694336,0.1771579533815384
1666761362640324900,5.497324951171875,0.20299412310123444,1.819486379623413,-0.07526298612356186
1666761362660269800,5.517269775390625,0.01902110129594803,1.8030425310134888,-0.2219921350479126
1666761362680214800,5.53721484375,-0.15356773138046265,1.2793607711791992,0.08270915597677231
1666761362700159700,5.55715966796875,-0.2712605893611908,0.846909761428833,0.2695702910423279
1666761362720105000,5.57710498046875,-0.35437995195388794,0.5620762705802917,0.1220993921160698
1666761362740050000,5.5970498046875,-0.3120013177394867,0.353781521320343,-0.13139328360557556
1666761362759994600,5.61699462890625,-0.23933446407318115,0.10404226928949356,-0.207708477973938
1666761362779939800,5.63693994140625,-0.22115609049797058,-0.18994493782520294,-0.08399712294340134
1666761362799884800,5.656884765625,-0.2142084240913391,-0.4864098131656647,0.06890712678432465
1666761362819830000,5.676830078125,-0.19178181886672974,-0.7194492816925049,-0.05452614650130272
1666761362839774700,5.696774658203125,-0.15340527892112732,-0.7843954563140869,-0.24560613930225372
1666761362859720000,5.716719970703125,-0.16979233920574188,-0.6958651542663574,-0.3568652868270874
1666761362879665000,5.736664794921875,-0.23826904594898224,-0.8212650418281555,-0.20638017356395721
1666761362899609900,5.75660986328125,-0.24154019355773926,-1.3824386596679688,0.020826756954193115
1666761362919555000,5.77655517578125,-0.2804234027862549,-2.320913553237915,-0.11547739803791046
1666761362939500800,5.796500732421875,-0.17780159413814545,-3.0202229022979736,-0.376834899187088
1666761362959446000,5.816446044921875,-0.06410682201385498,-3.1941330432891846,-0.5720325708389282
1666761362979391000,5.836390869140625,-0.06269790977239609,-3.175830602645874,-0.6264833211898804
1666761362999335700,5.856335693359375,-0.09641578793525696,-3.123138666152954,-0.4113026261329651
1666761363019281000,5.876281005859375,-0.1936987042427063,-3.3735122680664062,-0.06002216041088104
1666761363039225900,5.896225830078125,-0.22005711495876312,-3.6908726692199707,0.24748022854328156
1666761363059171000,5.916171142578125,-0.016315661370754242,-3.705364227294922,0.4347460865974426
1666761363079115800,5.93611572265625,0.11825896054506302,-3.8517303466796875,0.4070820212364197
1666761363099060700,5.956060791015625,0.13191574811935425,-3.9253411293029785,0.28002116084098816
1666761363119006000,5.976005859375,0.015646498650312424,-3.6680572032928467,0.1028391569852829
1666761363138951000,5.995950927734375,-0.07532650232315063,-3.2670629024505615,0.06868966668844223
1666761363158895900,6.015895751953125,-0.19293223321437836,-3.0212182998657227,0.19689662754535675
1666761363178840800,6.0358408203125,-0.2626672685146332,-3.278397560119629,0.41912224888801575
1666761363198785800,6.055785888671875,-0.2360391765832901,-3.4261062145233154,0.5194461941719055
1666761363218731000,6.07573095703125,-0.21629564464092255,-3.5748610496520996,0.5674929618835449
1666761363238675700,6.09567578125,-0.1600685864686966,-3.7261621952056885,0.5616121888160706
1666761363258622000,6.1156220703125,-0.004459922667592764,-3.5024349689483643,0.4247007668018341
1666761363278567000,6.13556689453125,0.020340315997600555,-3.1012349128723145,0.06981565803289413
1666761363298512000,6.155511962890625,0.014799156226217747,-2.4063851833343506,-0.09418710321187973
1666761363318456800,6.175456787109375,-0.024913497269153595,-1.650704026222229,-0.02860008180141449
1666761363338401800,6.19540185546875,-0.030821315944194794,-1.2765002250671387,0.1121075227856636
1666761363358347000,6.215346923828125,0.06243227422237396,-1.0183625221252441,0.19596916437149048
1666761363378292000,6.2352919921875,0.15315546095371246,-1.1137990951538086,0.4330279231071472
1666761363398237000,6.25523681640625,0.22957554459571838,-0.6532266139984131,0.562781810760498
1666761363418182000,6.275181884765625,0.2627098262310028,-0.6023763418197632,0.5957460403442383
1666761363438126800,6.295126953125,0.2645239531993866,-0.6545908451080322,0.3498557507991791
1666761363458072000,6.315072021484375,0.04923100769519806,-0.47218823432922363,-0.04278891161084175
1666761363478016800,6.335016845703125,-0.0707809254527092,-0.053017757833004,-0.18216927349567413
1666761363497961700,6.354961669921875,-0.12841029465198517,0.25715136528015137,-0.2299395203590393
1666761363517907000,6.374906982421875,-0.1547144651412964,0.47541344165802,-0.27245524525642395
1666761363537852000,6.394851806640625,-0.19985604286193848,0.6557469367980957,-0.3615986108779907
1666761363557796900,6.414796875,-0.20853278040885925,0.8446998000144958,-0.4745618402957916
1666761363577742800,6.434742919921875,-0.13832363486289978,1.1332035064697266,-0.5477780699729919
1666761363597688000,6.45468798828125,-0.14684225618839264,1.360636591911316,-0.4779529571533203
1666761363617632800,6.4746328125,-0.08663569390773773,1.5811272859573364,-0.2673181891441345
1666761363637577700,6.49457763671875,0.011645058169960976,1.6498990058898926,0.020123133435845375
1666761363657523000,6.51452294921875,0.024106662720441818,1.9027551412582397,0.171458899974823
1666761363677468000,6.534468017578125,-0.009253216907382011,2.2722487449645996,0.1759130209684372
1666761363697412900,6.554412841796875,-0.03744388371706009,2.793119430541992,0.06133299693465233
1666761363717357800,6.57435791015625,-0.16514253616333008,3.053112030029297,-0.24029730260372162
1666761363737302800,6.594302734375,-0.22217056155204773,3.1990208625793457,-0.4870523512363434
1666761363757248000,6.614248046875,-0.20017950236797333,3.0227715969085693,-0.6815075278282166
1666761363777192700,6.634192626953125,-0.06710068881511688,3.1912591457366943,-0.7862288951873779
1666761363797138000,6.654137939453125,0.24654905498027802,3.2626354694366455,-0.6089984178543091
1666761363817083000,6.674082763671875,0.5119803547859192,3.2883405685424805,-0.27285996079444885
1666761363837028000,6.694028076171875,0.5751710534095764,3.413041591644287,0.04350225254893303
1666761363856973000,6.71397314453125,0.5347545146942139,3.5826897621154785,0.1848001629114151
1666761363876919000,6.7339189453125,0.4925881028175354,3.652561664581299,0.24090701341629028
1666761363896864300,6.7538642578125,0.3772154152393341,3.5634589195251465,0.2720385789871216
1666761363916809000,6.77380908203125,0.26788267493247986,3.321665048599243,0.546264111995697
1666761363936754200,6.793754150390625,0.2796216607093811,3.065058708190918,0.655059278011322
1666761363956699100,6.81369921875,0.21546445786952972,2.9959475994110107,0.5828948616981506
1666761363976644000,6.83364404296875,0.18526339530944824,2.7865688800811768,0.5705723166465759
1666761363996589000,6.853589111328125,0.2431911677122116,2.395455837249756,0.46562761068344116
1666761364016534000,6.873533935546875,0.2500881254673004,2.2258083820343018,0.21035803854465485
1666761364036479200,6.893479248046875,0.1960412561893463,2.106720209121704,-0.03202513977885246
1666761364056424200,6.913424072265625,0.11177490651607513,1.8924438953399658,0.02611946128308773
1666761364076369200,6.933369140625,-0.0544838048517704,1.4646937847137451,0.3399456739425659
1666761364096314000,6.953314208984375,-0.2043582797050476,1.2460570335388184,0.3596474230289459
1666761364116259000,6.973259033203125,-0.32538822293281555,1.0442404747009277,0.12220089882612228
1666761364136204300,6.993204345703125,-0.3304083049297333,0.8256747126579285,-0.16830328106880188
1666761364156149200,7.013149169921875,-0.3664425015449524,0.6534565687179565,-0.4024548828601837
1666761364176094000,7.033093994140625,-0.4555918872356415,0.3689004182815552,-0.30960410833358765
1666761364196040200,7.053040283203125,-0.48295244574546814,0.2609918713569641,-0.13559924066066742
1666761364215985200,7.072985107421875,-0.41229426860809326,0.09247080981731415,-0.16241802275180817
1666761364235930000,7.09293017578125,-0.2758408486843109,-0.19490671157836914,-0.2849777042865753
1666761364255875000,7.112875,-0.14511311054229736,-0.5564570426940918,-0.30076390504837036
1666761364275820000,7.132820068359375,-0.06167738512158394,-0.8692358136177063,-0.21864154934883118
1666761364295765200,7.15276513671875,-0.048197731375694275,-1.1491444110870361,-0.180095374584198
1666761364315710000,7.1727099609375,-0.054897241294384,-1.384408950805664,-0.2012244462966919
1666761364335655200,7.1926552734375,-0.028967825695872307,-1.8237303495407104,-0.15425986051559448
1666761364355600100,7.21260009765625,0.09500937908887863,-2.3928465843200684,-0.07750381529331207
1666761364375545000,7.232545166015625,0.19282084703445435,-3.0182714462280273,-0.08573081344366074
1666761364395490000,7.252489990234375,0.2532810866832733,-3.491895914077759,-0.10122786462306976
1666761364415435000,7.27243505859375,0.23020195960998535,-3.9830706119537354,-0.032112084329128265
1666761364435380200,7.292380126953125,0.19349601864814758,-4.439666748046875,0.044323667883872986
1666761364455325200,7.3123251953125,0.19322675466537476,-4.578320503234863,0.012238134630024433
1666761364475270100,7.332270263671875,0.09011393785476685,-4.436381816864014,-0.0631551593542099
1666761364495216000,7.352216064453125,-0.044623252004384995,-3.976795196533203,-0.1624869704246521
1666761364515161000,7.3721611328125,-0.16874286532402039,-3.5606651306152344,-0.23166866600513458
1666761364535106300,7.392106201171875,-0.1667812019586563,-3.132307291030884,0.049212466925382614
1666761364555051000,7.412051025390625,-0.10702323168516159,-2.689382314682007,0.3623304069042206
1666761364574996200,7.431996337890625,-0.12344556301832199,-2.4650866985321045,0.49914246797561646
1666761364594941200,7.451941162109375,-0.11593954265117645,-2.4587860107421875,0.4325004816055298
1666761364614886100,7.47188623046875,-0.03530038148164749,-2.1399569511413574,0.18720631301403046
1666761364634831000,7.4918310546875,0.01213773526251316,-1.9844722747802734,-0.10788528621196747
1666761364654776000,7.511776123046875,0.09697578847408295,-1.7140125036239624,-0.3034828007221222
1666761364674721300,7.53172119140625,0.10789579898118973,-1.6830546855926514,-0.4737659990787506
1666761364694666200,7.551666259765625,0.22033897042274475,-1.5894968509674072,-0.4244513213634491
1666761364714611000,7.57161083984375,0.13777123391628265,-1.569653868675232,-0.2600495219230652
1666761364734556200,7.59155615234375,0.06522934138774872,-1.7033442258834839,0.001956815365701914
1666761364754501000,7.611501220703125,-0.015798240900039673,-1.4341388940811157,0.05125109478831291
1666761364774446000,7.631446044921875,-0.12173521518707275,-1.2082792520523071,-0.16296419501304626
1666761364794391000,7.65139111328125,-0.1732102334499359,-1.282080054283142,-0.2547701299190521
1666761364814337000,7.6713369140625,-0.18963521718978882,-0.9118285775184631,-0.057269711047410965
1666761364834282500,7.691282470703125,-0.15236017107963562,-0.4530077576637268,0.044894568622112274
1666761364854227200,7.711227294921875,-0.16987471282482147,-0.28173667192459106,-0.011947140097618103
1666761364874172400,7.73117236328125,-0.16991619765758514,-0.21467547118663788,-0.09948328137397766
1666761364894117400,7.751117431640625,-0.06816711276769638,-0.06964944303035736,-0.12554943561553955
1666761364914062300,7.771062255859375,0.04356657341122627,0.20422230660915375,0.04216013476252556
1666761364934007300,7.79100732421875,0.113853320479393,0.5426493883132935,0.10636669397354126
1666761364953952300,7.8109521484375,0.08395564556121826,0.8994322419166565,0.03404436632990837
1666761364973897200,7.830897216796875,0.022296227514743805,1.238051176071167,-0.08268406987190247
1666761364993842400,7.850842529296875,-0.011981166899204254,1.4029247760772705,-0.16640517115592957
1666761365013787400,7.870787353515625,0.016392000019550323,1.5346461534500122,-0.2042967826128006
1666761365033732400,7.890732421875,0.10965710878372192,1.6538292169570923,-0.23686924576759338
1666761365053677300,7.91067724609375,0.14743672311306,1.8111757040023804,-0.2891915440559387
1666761365073622300,7.930622314453125,0.11673963814973831,2.041515350341797,-0.2248806208372116
1666761365093567500,7.9505673828125,0.07414502650499344,2.2371268272399902,-0.1672462821006775
1666761365113511400,7.970511474609375,0.04301236942410469,2.3710739612579346,0.0011517151724547148
1666761365133457400,7.99045751953125,0.040246445685625076,2.7064950466156006,0.19240030646324158
1666761365153402400,8.01040234375,-0.012634625658392906,2.7721762657165527,0.14031511545181274
1666761365173347300,8.030347412109375,-0.09739795327186584,2.593057870864868,0.032493915408849716
1666761365193292300,8.050292236328126,-0.15861822664737701,2.5441205501556396,-0.03197934105992317
1666761365213237200,8.0702373046875,-0.13255667686462402,2.4740469455718994,-0.06676674634218216
1666761365233182500,8.090182373046876,-0.05279839038848877,2.54787540435791,-0.0870431587100029
1666761365253127400,8.11012744140625,0.05486391484737396,2.7030460834503174,-0.10106759518384933
1666761365273072000,8.130072021484375,0.05145477503538132,2.6583034992218018,-0.11799563467502594
1666761365293017300,8.150017333984374,0.0200030654668808,2.5083537101745605,-0.07051576673984528
1666761365312962300,8.16996240234375,0.02121267095208168,2.358973979949951,-0.006296862848103046
1666761365332907500,8.189907470703124,-0.0035352185368537903,2.362720012664795,-0.08437474817037582
1666761365352852200,8.209852294921875,0.005828818306326866,2.4075405597686768,-0.19685930013656616
1666761365372797200,8.229797119140626,0.048026371747255325,2.354928731918335,-0.21684224903583527
1666761365392742400,8.249742431640625,0.08168589323759079,2.0774447917938232,-0.1597827970981598
1666761365412687400,8.269687255859376,0.15824268758296967,1.879234790802002,-0.0432596430182457
1666761365432632300,8.28963232421875,0.20900893211364746,1.7132112979888916,0.05886665731668472
1666761365452577300,8.309577392578126,0.22285819053649902,1.0192530155181885,0.12044688314199448
1666761365472523500,8.3295234375,0.2585042417049408,0.7146585583686829,0.06571882963180542
1666761365492468500,8.349468505859376,0.2773505449295044,0.5734020471572876,0.08413699269294739
1666761365512413200,8.3694130859375,0.23152458667755127,0.5058245062828064,0.16417720913887024
1666761365532358400,8.3893583984375,0.11617446690797806,0.42258313298225403,0.1524331122636795
1666761365552304400,8.409304443359375,0.0014643184840679169,0.3271862268447876,0.026381446048617363
1666761365572250400,8.42925048828125,-0.06601665914058685,0.16067835688591003,-0.0592220313847065
1666761365592195300,8.4491953125,-0.1334621012210846,-0.18143974244594574,-0.05800940841436386
1666761365612140500,8.469140625,-0.16175220906734467,-0.5262717008590698,-0.1250637173652649
1666761365632085200,8.489085205078124,-0.1969859004020691,-0.7564403414726257,-0.21764422953128815
1666761365652030200,8.5090302734375,-0.19161689281463623,-1.0466012954711914,-0.2592027187347412
1666761365671975400,8.528975341796874,-0.17274008691310883,-1.3613578081130981,-0.2941327691078186
1666761365691920400,8.54892041015625,-0.1495111584663391,-1.8367383480072021,-0.3323063254356384
1666761365711865300,8.568865234375,-0.09526298940181732,-2.1878271102905273,-0.27527159452438354
1666761365731810300,8.588810302734375,-0.038480404764413834,-2.341905117034912,-0.1508830487728119
1666761365751755300,8.60875537109375,0.007369374856352806,-2.3582303524017334,-0.039512842893600464
1666761365771700500,8.628700439453125,-0.0159256923943758,-2.455578565597534,0.09314321726560593
1666761365791645200,8.648645263671876,-0.03885389491915703,-2.479557991027832,0.10057065635919571
1666761365811590400,8.66859033203125,-0.06853704154491425,-2.3653743267059326,-0.0035219464916735888
1666761365831535400,8.688535400390625,-0.10750529170036316,-2.259929895401001,-0.04577435553073883
1666761365851481300,8.7084814453125,-0.1066841259598732,-2.1157679557800293,0.09172368794679642
1666761365871426300,8.72842626953125,-0.11113926768302917,-2.491232395172119,0.2714328169822693
1666761365891371500,8.74837158203125,-0.10049479454755783,-2.7947070598602295,0.41326937079429626
1666761365911316500,8.76831640625,-0.055848825722932816,-3.172541379928589,0.6462135314941406
1666761365931261400,8.788261474609374,-0.04894284904003143,-3.5457746982574463,0.7963274717330933
1666761365951206400,8.808206298828125,-0.02122490480542183,-3.5278356075286865,0.6899048686027527
1666761365971151400,8.8281513671875,-0.03354310244321823,-3.2274527549743652,0.4718477725982666
1666761365991096600,8.8480966796875,-0.015810281038284302,-2.8375775814056396,0.23944388329982758
1666761366011041300,8.868041259765626,0.06265459209680557,-2.5666589736938477,0.07833521068096161
1666761366030986500,8.887986572265625,0.15874135494232178,-2.2621214389801025,0.12272422760725021
1666761366050931500,8.907931396484376,0.26034045219421387,-1.8685942888259888,0.20530499517917633
1666761366070876400,8.92787646484375,0.34484508633613586,-1.6033968925476074,0.10539558529853821
1666761366090821600,8.947821533203125,0.31532958149909973,-1.6060869693756104,-0.1761910617351532
1666761366110766300,8.967766357421874,0.26400548219680786,-1.541090488433838,-0.37780460715293884
1666761366130711600,8.987711669921875,0.06329040974378586,-1.4528450965881348,-0.45192721486091614
1666761366150657500,9.007657470703125,-0.017112169414758682,-1.1300352811813354,-0.1551963835954666
1666761366170602500,9.0276025390625,-0.05113588273525238,-0.8626325726509094,0.06661517173051834
1666761366190547500,9.04754736328125,-0.08660060167312622,-0.6094447374343872,-0.072279192507267
1666761366210492400,9.067492431640625,-0.10185778886079788,-0.36777105927467346,-0.3529910147190094
1666761366230437600,9.087437744140624,-0.125449076294899,-0.033896252512931824,-0.35956308245658875
1666761366250382300,9.10738232421875,-0.07397957891225815,0.2869153320789337,-0.12879060208797455
1666761366270327600,9.12732763671875,0.0000037392601370811462,0.6448445916175842,0.0947781354188919
1666761366290272500,9.1472724609375,0.0026439442299306393,0.904609203338623,0.005988086573779583
1666761366310217500,9.167217529296876,-0.026521364226937294,1.0471175909042358,-0.12265211343765259
1666761366330162400,9.187162353515625,-0.09641541540622711,1.1058090925216675,-0.1412808895111084
1666761366350107400,9.207107421875,-0.11239083111286163,1.2584216594696045,-0.050798069685697556
1666761366370052600,9.227052490234374,-0.09254620224237442,1.4584627151489258,0.009799753315746784
1666761366389997600,9.24699755859375,-0.1399308741092682,1.5813308954238892,0.058207590132951736
1666761366409942300,9.2669423828125,-0.18276427686214447,1.9788529872894287,0.1069217398762703
1666761366429887500,9.286887451171875,-0.17476575076580048,2.343141555786133,0.07582160830497742
1666761366449833500,9.30683349609375,-0.19705618917942047,2.5629117488861084,-0.04864094406366348
1666761366469778400,9.3267783203125,-0.23030361533164978,2.58516263961792,-0.2004125863313675
1666761366489723400,9.346723388671874,-0.18009230494499207,2.4095640182495117,-0.36005350947380066
1666761366509668400,9.36666845703125,-0.00413887482136488,2.118298292160034,-0.42806869745254517
1666761366529613600,9.386613525390626,0.12898141145706177,1.7125052213668823,-0.266344279050827
1666761366549558500,9.40655859375,0.22146323323249817,1.6530630588531494,-0.03134302422404289
1666761366569503500,9.42650341796875,0.17774337530136108,1.6672524213790894,0.04843711480498314
1666761366589448400,9.446448486328125,0.14451850950717926,1.6019337177276611,0.007329635322093964
1666761366609393400,9.466393310546875,0.1859690546989441,1.5684983730316162,-0.007701326161623001
1666761366629338600,9.486338623046874,0.2134440392255783,1.6451152563095093,0.06214894726872444
1666761366649283300,9.506283447265625,0.14696477353572845,1.8563016653060913,0.201237753033638
1666761366669228500,9.526228515625,0.08778652548789978,1.9286878108978271,0.3355242908000946
1666761366689173500,9.546173583984375,0.054940689355134964,1.9329291582107544,0.4306606650352478
1666761366709118500,9.566118408203126,0.020165344700217247,1.966813087463379,0.39987266063690186
1666761366729063400,9.5860634765625,-0.04411506652832031,2.145885467529297,0.36169663071632385
1666761366749008400,9.60600830078125,-0.06216400861740112,2.355583667755127,0.38976868987083435
1666761366768954600,9.62595458984375,-0.06824807077646255,2.300288200378418,0.44193822145462036
1666761366788899300,9.6458994140625,-0.04991721361875534,2.1508278846740723,0.40917789936065674
1666761366808844500,9.665844482421875,-0.04791034013032913,1.9909439086914062,0.23314262926578522
1666761366828789500,9.68578955078125,-0.00022010132670402527,1.9352195262908936,0.03031071089208126
1666761366848734500,9.705734375,0.04583161324262619,1.8221288919448853,-0.09724684059619904
1666761366868679200,9.72567919921875,0.09639888256788254,1.4679449796676636,-0.010550632141530514
1666761366888624400,9.745624267578124,0.11832687258720398,1.1227666139602661,0.2895055413246155
1666761366908569300,9.7655693359375,0.07324554026126862,0.9747591614723206,0.4506073296070099
1666761366928514300,9.785514404296874,-0.014199737459421158,0.8174851536750793,0.2480541467666626
1666761366948459300,9.805459228515625,-0.02454071119427681,0.4739453196525574,-0.1417926698923111
1666761366968404200,9.825404296875,0.043928369879722595,0.2294771373271942,-0.345651239156723
1666761366988349400,9.845349365234375,-0.0028398737777024508,-0.05682104825973511,-0.3012183904647827
1666761367008294400,9.86529443359375,-0.11070515215396881,-0.23954707384109497,-0.37031716108322144
1666761367028239400,9.8852392578125,-0.20637719333171844,-0.3290816843509674,-0.5497295260429382
1666761367048184300,9.905184326171875,-0.24237340688705444,-0.434854656457901,-0.6118535399436951
1666761367068130300,9.92513037109375,-0.18398284912109375,-0.639474630355835,-0.48199889063835144
1666761367088075500,9.945075439453126,-0.14679773151874542,-0.8731430172920227,-0.2638903856277466
1666761367108020200,9.965020263671875,-0.13035818934440613,-1.1070823669433594,-0.1329530030488968
1666761367127965400,9.98496533203125,-0.12400169670581818,-1.329429268836975,-0.1839323341846466
1666761367147910400,10.004910400390624,-0.09457395225763321,-1.577205777168274,-0.24380870163440704
1666761367167855400,10.02485546875,-0.025588957592844963,-1.7965309619903564,-0.1991468220949173
1666761367187800300,10.04480029296875,0.07142756879329681,-2.032748222351074,-0.037359315901994705
1666761367207745300,10.064745361328125,0.13568872213363647,-2.3965914249420166,0.06582537293434143
1666761367227690200,10.084690185546876,0.1966082751750946,-2.538236379623413,-0.03168634697794914
1666761367247635500,10.104635498046875,0.17743007838726044,-2.6645617485046387,-0.09050861746072769
1666761367267580200,10.124580078125,0.1536991447210312,-2.549565076828003,-0.09459172934293747
1666761367287525400,10.144525390625,0.0461491234600544,-2.503657102584839,-0.18439549207687378
1666761367307470300,10.16447021484375,-0.09230916947126389,-2.647942066192627,-0.2897806465625763
1666761367327415300,10.184415283203125,-0.1371084749698639,-2.697638511657715,-0.42159420251846313
1666761367347360300,10.2043603515625,-0.19741612672805786,-2.597330331802368,-0.5116382837295532
1666761367367306200,10.22430615234375,-0.2455483227968216,-2.4674227237701416,-0.5633816719055176
1666761367387251500,10.24425146484375,-0.2954317033290863,-2.38972544670105,-0.4215926229953766
1666761367407196200,10.264196044921874,-0.38986867666244507,-2.469151496887207,-0.3395477831363678
1666761367427141400,10.284141357421875,-0.41031724214553833,-2.694589138031006,-0.1992930918931961
1666761367447086300,10.30408642578125,-0.31920862197875977,-2.729193925857544,-0.01688322052359581
1666761367467031300,10.32403125,-0.2875577509403229,-2.700843572616577,-0.10372783243656158
1666761367486976500,10.3439765625,-0.21243557333946228,-2.547764539718628,-0.09931536018848419
1666761367506921200,10.363921142578125,-0.10099910199642181,-2.245433807373047,0.0010815938003361225
1666761367526866400,10.383866455078126,-0.06618626415729523,-2.0048344135284424,0.03157026320695877
1666761367546811400,10.403811279296875,-0.06640086323022842,-1.7054893970489502,0.056973155587911606
1666761367566756400,10.42375634765625,-0.06669720262289047,-1.3836902379989624,0.07255838811397552
1666761367586701300,10.443701416015625,-0.006507394835352898,-0.7881746292114258,0.17803311347961426
1666761367606646300,10.463646240234375,0.014702054671943188,-0.23646771907806396,0.18733374774456024
1666761367626591500,10.483591552734374,0.030707502737641335,0.1903056800365448,0.07924892008304596
1666761367646536400,10.503536376953125,0.019321341067552567,0.4953330159187317,-0.03467901423573494
1666761367666481200,10.523481201171874,0.021078262478113174,0.6833471059799194,-0.16169388592243195
1666761367686427400,10.543427490234375,0.030446749180555344,0.7986024618148804,-0.17979998886585236
1666761367706372400,10.563372314453124,0.036587174981832504,0.8804539442062378,-0.09441927820444107
1666761367726317300,10.5833173828125,0.010504980571568012,0.8319991827011108,0.03089926950633526
1666761367746262300,10.60326220703125,-0.027455991134047508,0.6515269875526428,0.06277114152908325
1666761367766207200,10.623207275390625,-0.05278031900525093,0.3998083174228668,0.05412082374095917
1666761367786152400,10.64315234375,-0.05416479334235191,0.3455832004547119,0.08026182651519775
1666761367806097200,10.66309716796875,-0.07327166199684143,0.30198371410369873,0.1925908476114273
1666761367826042400,10.68304248046875,-0.05189310386776924,0.21262536942958832,0.21051424741744995
1666761367845986800,10.70298681640625,-0.05271267518401146,0.2846638858318329,0.11615490168333054
1666761367865932000,10.72293212890625,-0.039211176335811615,0.6588039398193359,0.16123224794864655
1666761367885877000,10.742876953125,-0.10170411318540573,1.2105944156646729,0.009155090898275375
1666761367905821700,10.76282177734375,-0.11064170300960541,1.2219403982162476,-0.0954977348446846
1666761367925767000,10.782766845703126,-0.0814438909292221,0.860046923160553,-0.09057240933179855
1666761367945711900,10.8027119140625,-0.008948341012001038,0.6305873990058899,-0.06270415335893631
1666761367965657900,10.822657958984376,-0.015080420300364494,0.6484835743904114,-0.03989807516336441
1666761367985602800,10.842602783203125,-0.0582197904586792,0.9240723848342896,-0.32544320821762085
1666761368005547800,10.8625478515625,-0.09317812323570251,1.2181447744369507,-0.673997700214386
1666761368025493000,10.882492919921875,-0.1052035316824913,1.446348786354065,-0.78094482421875
1666761368045437700,10.902437744140625,-0.06034282594919205,1.228829026222229,-0.5956764817237854
1666761368065383000,10.9223828125,0.006483042612671852,1.0907337665557861,-0.45835080742836
1666761368085328000,10.942327880859375,0.006846862845122814,1.208946704864502,-0.42196035385131836
1666761368105272800,10.96227294921875,0.010604137554764748,1.433890700340271,-0.38921618461608887
1666761368125217800,10.9822177734375,0.032133664935827255,1.5335179567337036,-0.31129157543182373
1666761368145162800,11.002162841796874,0.04464653506875038,1.4147095680236816,-0.24890023469924927
1666761368165108000,11.02210791015625,0.0925418958067894,1.3502932786941528,-0.23082612454891205
1666761368185053000,11.042052978515626,0.21476814150810242,1.521622896194458,-0.3122369647026062
1666761368204998000,11.061997802734375,0.3019788861274719,1.58394455909729,-0.31740838289260864
1666761368224942800,11.08194287109375,0.40349337458610535,1.6587547063827515,-0.2329622507095337
1666761368244887800,11.1018876953125,0.41712716221809387,1.568524718284607,-0.2141149640083313
1666761368264833000,11.1218330078125,0.44888168573379517,1.4254906177520752,-0.07787741720676422
1666761368284778800,11.14177880859375,0.44359147548675537,1.2727121114730835,-0.016713036224246025
1666761368304724000,11.161723876953126,0.3938716650009155,1.0372456312179565,-0.010220187716186047
1666761368324669000,11.1816689453125,0.328952819108963,0.7034674286842346,-0.013264138251543045
1666761368344614000,11.20161376953125,0.2700510621070862,0.32480815052986145,0.008179841563105583
1666761368364558800,11.221558837890624,0.18622808158397675,0.12198083102703094,0.12312737852334976
1666761368384503800,11.24150390625,0.07318520545959473,-0.10746107995510101,0.18991433084011078
1666761368404449000,11.261448974609374,-0.04528496786952019,-0.14828646183013916,0.14224793016910553
1666761368424394000,11.28139404296875,-0.10594310611486435,-0.1418176293373108,0.11543431878089905
1666761368444338700,11.301338623046876,-0.10245473682880402,-0.11305554956197739,0.17942826449871063
1666761368464284000,11.321283935546875,-0.14508217573165894,-0.10062894225120544,0.29279235005378723
1666761368484228900,11.341228759765626,-0.06161867827177048,-0.08769069612026215,0.18397177755832672
1666761368504173800,11.361173828125,-0.01681406982243061,-0.022380350157618523,0.17199841141700745
1666761368524118800,11.381118896484375,0.003102819435298443,-0.000567905604839325,0.07254808396100998
