time,seconds_elapsed,z,y,x
1666761410558271200,0.025271240234375,-0.09514088928699493,0.4249011278152466,0.8413925766944885
1666761410578216200,0.04521630859375,-0.03058137372136116,0.17900507152080536,1.0750154256820679
1666761410598161200,0.0651611328125,-0.044315971434116364,-0.039378270506858826,1.0750747919082642
1666761410618106400,0.0851064453125,-0.06771397590637207,-0.17002876102924347,0.7870858311653137
1666761410638052400,0.10505224609375,-0.022824417799711227,-0.27846550941467285,0.34700706601142883
1666761410657997300,0.124997314453125,0.06890866160392761,-0.27539801597595215,-0.07607515156269073
1666761410677943300,0.144943359375,0.10167903453111649,-0.1947508156299591,-0.41201508045196533
1666761410697888300,0.16488818359375,0.07672975212335587,-0.1305905431509018,-0.5182793140411377
1666761410717833200,0.184833251953125,0.0369453951716423,-0.10832527279853821,-0.3789338171482086
1666761410737778200,0.204778076171875,0.033486414700746536,-0.0779142826795578,-0.14349296689033508
1666761410757724200,0.22472412109375,0.03755222260951996,-0.0153739545494318,0.033250849694013596
1666761410777669000,0.244669189453125,0.026453036814928055,0.02974981814622879,0.08163091540336609
1666761410797614300,0.2646142578125,0.023616451770067215,0.07298075407743454,0.009775033220648766
1666761410817559300,0.284559326171875,0.011867135763168335,0.0793917179107666,-0.09883840382099152
1666761410837505300,0.30450537109375,-0.010739151388406754,0.034082211554050446,-0.1389564722776413
1666761410857450200,0.3244501953125,-0.025632604956626892,0.01645222119987011,-0.09364385157823563
1666761410877395700,0.344395751953125,-0.005187645088881254,-0.0028516333550214767,0.0063674794510006905
1666761410897340400,0.36434033203125,-0.001955626765266061,0.018097393214702606,0.07603084295988083
1666761410917286700,0.38428662109375,-0.010964327491819859,0.018448585644364357,0.07783491909503937
1666761410937231600,0.404231689453125,-0.02584410272538662,0.020782431587576866,0.05710817128419876
1666761410957176600,0.424176513671875,-0.027141638100147247,0.038724858313798904,0.09713287651538849
1666761410977121500,0.44412158203125,-0.022738289088010788,0.03260708600282669,0.11905989795923233
1666761410997067800,0.46406787109375,-0.026511317119002342,0.014307843521237373,0.09501811861991882
1666761411017012500,0.484012451171875,-0.0203988216817379,0.0012062247842550278,0.03900691494345665
1666761411036957400,0.50395751953125,0.007338006515055895,-0.011377939954400063,-0.014220490120351315
1666761411056902700,0.523902587890625,0.035526927560567856,-0.03548825904726982,-0.031065749004483223
1666761411076848400,0.543848388671875,0.02354097180068493,-0.02056037075817585,-0.011627822183072567
1666761411096793600,0.563793701171875,0.01613382250070572,0.02355663850903511,0.015345904976129532
1666761411116738600,0.583738525390625,0.020947206765413284,0.03813730552792549,0.03290945664048195
1666761411136683800,0.603683837890625,0.02417047694325447,0.022500645369291306,0.03537095710635185
1666761411156629500,0.62362939453125,0.008993880823254585,-0.01777329482138157,0.10033470392227173
1666761411176574500,0.643574462890625,-0.003820145735517144,-0.11177779734134674,0.2664899230003357
1666761411196519700,0.663519775390625,-0.0260894987732172,-0.21149799227714539,0.5447532534599304
1666761411216464600,0.683464599609375,-0.001749424496665597,-0.27106332778930664,0.9844172596931458
1666761411236410600,0.70341064453125,0.009763811714947224,-0.31064724922180176,1.5411741733551025
1666761411256355600,0.72335546875,-0.040027450770139694,-0.3056180477142334,2.1548995971679688
1666761411276300500,0.743300537109375,-0.1265195608139038,-0.3826000988483429,2.643047332763672
1666761411296245500,0.76324560546875,-0.12941484153270721,-0.40079501271247864,2.9014272689819336
1666761411316191700,0.783191650390625,-0.08026023954153061,-0.4327371418476105,2.808246374130249
1666761411336136700,0.80313671875,0.009199295192956924,-0.3515136241912842,2.4782919883728027
1666761411356081400,0.823081298828125,0.005494061391800642,-0.2688322365283966,2.183899402618408
1666761411376026600,0.843026611328125,-0.05921393632888794,-0.14247529208660126,2.0812313556671143
1666761411395972600,0.86297265625,-0.08351729810237885,-0.0964880883693695,2.056203603744507
1666761411415917600,0.88291748046875,0.01350357010960579,-0.23667733371257782,2.03658127784729
1666761411435862500,0.902862548828125,0.1746077686548233,-0.5108055472373962,2.0254180431365967
1666761411455807700,0.922807861328125,0.24128644168376923,-0.5516358017921448,1.9904488325119019
1666761411475753500,0.94275341796875,0.1751246452331543,-0.20883546769618988,1.7482335567474365
1666761411495698700,0.96269873046875,0.10836610943078995,0.09343836456537247,1.1550719738006592
1666761411515643600,0.9826435546875,0.10294504463672638,0.13512501120567322,0.6157787442207336
1666761411535589600,1.002589599609375,0.10572996735572815,0.16556528210639954,0.3407471179962158
1666761411555534600,1.02253466796875,0.06747271120548248,0.13766498863697052,0.18638943135738373
1666761411575479600,1.0424794921875,-0.05034956336021423,0.3351677358150482,-0.030280491337180138
1666761411595424800,1.0624248046875,-0.17812375724315643,0.4381701648235321,-0.30897682905197144
1666761411615370500,1.08237060546875,-0.1249588280916214,0.4294606149196625,-0.4902932047843933
1666761411635315700,1.102315673828125,-0.01514880359172821,0.424956351518631,-0.6734694242477417
1666761411655260700,1.1222607421875,0.05489193648099899,0.3928573727607727,-0.8602248430252075
1666761411675205400,1.142205322265625,0.1090078353881836,0.4104255139827728,-0.9745447039604187
1666761411695151600,1.162151611328125,0.14306241273880005,0.40790680050849915,-1.121583342552185
1666761411715096600,1.1820966796875,0.17214977741241455,0.5411807894706726,-1.6263750791549683
1666761411735041500,1.20204150390625,0.14950458705425262,0.675681471824646,-2.4030065536499023
1666761411754986500,1.221986572265625,0.09354974329471588,0.7483870983123779,-2.962501049041748
1666761411774932700,1.2419326171875,0.021190699189901352,0.9165821075439453,-3.1040852069854736
1666761411794877400,1.26187744140625,-0.10940223187208176,1.0415898561477661,-3.0147485733032227
1666761411814822700,1.28182275390625,-0.11135539412498474,0.9399849772453308,-2.8828155994415283
1666761411834767600,1.301767578125,-0.022969946265220642,0.5810385346412659,-2.590071201324463
1666761411854713600,1.321713623046875,0.00919189304113388,0.44120559096336365,-2.318800210952759
1666761411874658600,1.341658447265625,-0.13373452425003052,0.38350820541381836,-2.3675763607025146
1666761411894603500,1.361603515625,-0.26525142788887024,0.49696898460388184,-2.7136056423187256
1666761411914548500,1.381548583984375,-0.3502168655395508,0.28462913632392883,-3.212132215499878
1666761411934494500,1.401494384765625,-0.3137480616569519,0.06487992405891418,-3.518712043762207
1666761411954439400,1.421439453125,-0.2680191695690155,-0.015234225429594517,-3.46046781539917
1666761411974384600,1.441384521484375,-0.34545889496803284,-0.1921539604663849,-3.1856436729431152
1666761411994329300,1.461329345703125,-0.47277796268463135,-0.356728732585907,-3.003131866455078
1666761412014275600,1.481275634765625,-0.42537662386894226,-0.1199769675731659,-2.8670239448547363
1666761412034220500,1.501220458984375,-0.27261510491371155,0.1907965987920761,-2.4163618087768555
1666761412054165200,1.521165283203125,-0.2045382261276245,0.18904274702072144,-1.8546921014785767
1666761412074110500,1.5411103515625,-0.2126331627368927,-0.09592487663030624,-1.4117226600646973
1666761412094056400,1.561056396484375,-0.270852267742157,-0.2615201473236084,-1.1969501972198486
1666761412114001400,1.58100146484375,-0.30559465289115906,-0.10710234940052032,-1.043036699295044
1666761412133946400,1.6009462890625,-0.2950853705406189,0.02668929286301136,-0.979744553565979
1666761412153891600,1.6208916015625,-0.2056713104248047,-0.06315990537405014,-0.9381489157676697
1666761412173837300,1.64083740234375,-0.16965970396995544,-0.22281137108802795,-0.8422127962112427
1666761412193782500,1.660782470703125,-0.1745772361755371,-0.4184221625328064,-0.840025007724762
1666761412213727500,1.6807275390625,-0.0863570049405098,-0.23739293217658997,-0.6447429060935974
1666761412233672400,1.70067236328125,-0.0073285093531012535,0.04228830710053444,-0.38305771350860596
1666761412253618400,1.720618408203125,0.05538975074887276,0.1368984431028366,-0.2965637445449829
1666761412273563400,1.7405634765625,0.0626169741153717,-0.056703612208366394,-0.18762609362602234
1666761412293508600,1.760508544921875,0.017375074326992035,-0.23625531792640686,0.12093710899353027
1666761412313453300,1.780453369140625,0.003738019149750471,-0.23229144513607025,0.7143503427505493
1666761412333399600,1.800399658203125,-0.009254718199372292,-0.06300453096628189,1.3275165557861328
1666761412353344500,1.820344482421875,-0.05118701606988907,-0.0021703550592064857,1.7320401668548584
1666761412373289500,1.84028955078125,-0.04804609343409538,-0.16973845660686493,2.012584686279297
1666761412393234400,1.860234375,-0.040592312812805176,-0.22192856669425964,2.15891432762146
1666761412413180400,1.880180419921875,-0.022859957069158554,-0.19023528695106506,2.2206509113311768
1666761412433125400,1.90012548828125,0.029612019658088684,-0.17345120012760162,2.3764431476593018
1666761412453070300,1.9200703125,0.09069900214672089,-0.18815501034259796,2.8212015628814697
1666761412473015600,1.940015625,0.0914674624800682,-0.3531136214733124,3.394418478012085
1666761412492961300,1.959961181640625,-0.0020269386004656553,-0.4850282371044159,3.846069812774658
1666761412512906500,1.979906494140625,-0.036840617656707764,-0.3952474892139435,4.2987494468688965
1666761412532851500,1.9998515625,0.03508684039115906,-0.15038548409938812,4.424514293670654
1666761412552796400,2.01979638671875,0.037442173808813095,-0.14800839126110077,4.007875442504883
1666761412572742400,2.039742431640625,0.03220127150416374,-0.3425774872303009,3.294562578201294
1666761412592687400,2.059687255859375,0.19885176420211792,-0.49304333329200745,2.7273190021514893
1666761412612632600,2.079632568359375,0.2993864417076111,-0.3897578716278076,2.5199811458587646
1666761412632577500,2.09957763671875,0.25412237644195557,-0.2971104681491852,2.559175968170166
1666761412652523500,2.1195234375,0.2674378752708435,-0.243504136800766,2.8084254264831543
1666761412672468500,2.139468505859375,0.2939283847808838,-0.3452778458595276,2.9867310523986816
1666761412692413700,2.15941357421875,0.32248255610466003,-0.5709829926490784,2.8935201168060303
1666761412712358400,2.1793583984375,0.2789502739906311,-0.7197514176368713,2.7117583751678467
1666761412732304600,2.1993046875,0.16872666776180267,-0.8157064914703369,2.5864064693450928
1666761412752249600,2.21924951171875,0.09231700003147125,-0.8371694087982178,2.4465529918670654
1666761412772194300,2.2391943359375,0.06765676289796829,-1.0021306276321411,2.1205759048461914
1666761412792139500,2.259139404296875,0.05510525777935982,-0.9265956878662109,1.646653175354004
1666761412812085500,2.27908544921875,0.03266672417521477,-0.7823731899261475,1.073831558227539
1666761412832030500,2.299030517578125,0.00006695138290524483,-0.5861905217170715,0.5109823942184448
1666761412851975400,2.318975341796875,-0.060053739696741104,-0.3364121913909912,0.030052848160266876
1666761412871920400,2.33892041015625,-0.14212125539779663,-0.0959932953119278,-0.2921680808067322
1666761412891867000,2.358866943359375,-0.20234458148479462,0.2099955677986145,-0.4427531659603119
1666761412911811800,2.378811767578125,-0.23058690130710602,0.27606478333473206,-0.4096415042877197
1666761412931757000,2.398757080078125,-0.21582096815109253,0.2553849518299103,-0.37168872356414795
1666761412951702800,2.418702880859375,-0.1651989072561264,0.3085337281227112,-0.4372088313102722
1666761412971648000,2.43864794921875,-0.14130692183971405,0.4966348111629486,-0.6740386486053467
1666761412991593000,2.458593017578125,-0.039725542068481445,0.6082870364189148,-1.0301148891448975
1666761413011537700,2.47853759765625,0.06158970296382904,0.7372043132781982,-1.3825873136520386
1666761413031484000,2.49848388671875,0.05459488183259964,0.9511514902114868,-1.778847575187683
1666761413051428900,2.518428955078125,0.066071517765522,0.9965004324913025,-2.1414034366607666
1666761413071373800,2.538373779296875,0.07541172951459885,0.8986884951591492,-2.3973045349121094
1666761413091318800,2.55831884765625,0.034013282507658005,0.8687868118286133,-2.5880305767059326
1666761413111265000,2.57826513671875,0.03870873525738716,0.9829156994819641,-2.7990682125091553
1666761413131209700,2.598209716796875,-0.009853638708591461,0.8830146193504333,-3.0844733715057373
1666761413151155000,2.618155029296875,-0.025907045230269432,0.7540269494056702,-3.2819066047668457
1666761413171100000,2.638099853515625,-0.11371447145938873,0.7478845715522766,-3.4678330421447754
1666761413191046000,2.6580458984375,-0.2504120469093323,0.8012404441833496,-3.6271488666534424
1666761413210990800,2.677990966796875,-0.3201405704021454,0.6981003880500793,-3.5830259323120117
1666761413230935800,2.697935791015625,-0.34002768993377686,0.4870092272758484,-3.346397638320923
1666761413250881000,2.717881103515625,-0.3089805245399475,0.43289420008659363,-3.411442279815674
1666761413270826800,2.73782666015625,-0.19244270026683807,0.32570722699165344,-3.6378822326660156
1666761413290772000,2.75777197265625,-0.13669179379940033,0.008759791031479836,-3.6926991939544678
1666761413310717000,2.777717041015625,-0.04674571380019188,-0.0524616464972496,-3.6122822761535645
1666761413330662000,2.797661865234375,-0.009125296026468277,-0.000673314556479454,-3.4359934329986572
1666761413350608000,2.81760791015625,-0.04647424817085266,0.10439818352460861,-3.1461617946624756
1666761413370552800,2.837552734375,-0.1271718442440033,0.010838564485311508,-3.0100185871124268
1666761413390498000,2.857498046875,-0.30226367712020874,-0.1185685247182846,-2.8415229320526123
1666761413410442800,2.87744287109375,-0.41809791326522827,0.11789333075284958,-2.6711642742156982
1666761413430389000,2.897388916015625,-0.37289080023765564,-0.17742802202701569,-2.4435806274414062
1666761413450334000,2.917333984375,-0.02155059389770031,-0.4259689748287201,-1.683943748474121
1666761413470279000,2.93727880859375,0.1110595166683197,-0.2219315469264984,-0.8133922815322876
1666761413490223900,2.957223876953125,0.1102600023150444,-0.16982409358024597,-0.5220261812210083
1666761413510169900,2.977169921875,0.09216290712356567,-0.2879406809806824,-0.5993493795394897
1666761413530114800,2.99711474609375,0.07573215663433075,-0.30844807624816895,-0.7137069702148438
1666761413550059800,3.017059814453125,-0.021563421934843063,-0.1965654492378235,-0.8740650415420532
1666761413570006000,3.037006103515625,-0.1067376583814621,-0.05846273899078369,-0.9303708672523499
1666761413589950700,3.05695068359375,-0.15330220758914948,-0.14198844134807587,-0.8580483794212341
1666761413609896000,3.07689599609375,-0.21328702569007874,-0.4353445768356323,-0.6959192156791687
1666761413629841000,3.0968408203125,-0.27732351422309875,-0.4915546476840973,-0.2232166975736618
1666761413649787000,3.116786865234375,-0.16955065727233887,0.077025406062603,0.3515882194042206
1666761413669731800,3.13673193359375,-0.03174645081162453,0.36631909012794495,0.7282930612564087
1666761413689676800,3.1566767578125,0.00223009055480361,0.2819558084011078,0.9082610011100769
1666761413709622000,3.1766220703125,-0.020002976059913635,0.23866763710975647,1.1181467771530151
1666761413729567700,3.196567626953125,0.03585952892899513,0.1102561503648758,1.6344821453094482
1666761413749513000,3.216512939453125,0.07787305861711502,-0.1275242269039154,2.351180076599121
1666761413769458000,3.2364580078125,0.0054135131649672985,-0.4514492452144623,2.8890273571014404
1666761413789403000,3.25640283203125,-0.12549610435962677,-0.6033682823181152,3.264349937438965
1666761413809348900,3.276348876953125,-0.1832575500011444,-0.479475736618042,3.583228588104248
1666761413829294000,3.296294189453125,-0.19206124544143677,-0.2795364260673523,3.759364604949951
1666761413849238800,3.31623876953125,-0.1959594190120697,-0.00145778339356184,3.7027976512908936
1666761413869183700,3.336183837890625,-0.07370699197053909,0.15640176832675934,3.5113677978515625
1666761413889130200,3.356130126953125,0.13817346096038818,0.18297666311264038,3.319164752960205
1666761413909075000,3.376074951171875,0.26595380902290344,-0.1472521722316742,3.2864396572113037
1666761413929020200,3.396020263671875,0.26524117588996887,-0.4370139241218567,3.2938718795776367
1666761413948965000,3.415965087890625,0.24562805891036987,-0.3313243091106415,3.404053211212158
1666761413968911000,3.4359111328125,0.27520644664764404,-0.3270687758922577,3.5248782634735107
1666761413988856000,3.45585595703125,0.3237868845462799,-0.5650708079338074,3.441014289855957
1666761414008801000,3.475801025390625,0.2849879860877991,-0.770456075668335,3.381629467010498
1666761414028747000,3.4957470703125,0.21386222541332245,-0.6301314830780029,3.5801050662994385
1666761414048692000,3.51569189453125,0.15442416071891785,-0.7597561478614807,3.7635178565979004
1666761414068637200,3.53563720703125,0.22898486256599426,-0.872050404548645,3.7682485580444336
1666761414088582100,3.55558203125,0.24892067909240723,-0.7301052808761597,3.6196506023406982
1666761414108528000,3.575528076171875,0.0810324102640152,-0.769577145576477,3.260078191757202
1666761414128473000,3.59547314453125,-0.023250048980116844,-0.8557687401771545,2.6560287475585938
1666761414148418300,3.615418212890625,0.0751592218875885,-0.6570051312446594,2.0162041187286377
1666761414168363000,3.635363037109375,0.015570851042866707,-0.35291704535484314,1.4006823301315308
1666761414188309200,3.655309326171875,-0.04387158900499344,-0.11437985301017761,0.8272212743759155
1666761414208254200,3.675254150390625,-0.12187743186950684,0.0006332900375127792,0.38138288259506226
1666761414228199000,3.695198974609375,-0.17694880068302155,-0.10557597130537033,0.16591697931289673
1666761414248144100,3.71514404296875,-0.2299404889345169,-0.2388123869895935,0.029341069981455803
1666761414268090000,3.735090087890625,-0.23334316909313202,-0.24124448001384735,-0.11749570071697235
1666761414288035000,3.75503515625,-0.18945489823818207,-0.1038183644413948,-0.22452324628829956
1666761414307980000,3.77497998046875,-0.14623810350894928,-0.028312310576438904,-0.3465673625469208
1666761414327925000,3.794925048828125,-0.07844232022762299,0.05993490666151047,-0.5455512404441833
1666761414347871000,3.81487109375,0.0040764943696558475,0.09315869212150574,-0.7658137679100037
1666761414367816000,3.83481591796875,0.041790176182985306,0.27521705627441406,-1.0556862354278564
1666761414387761200,3.85476123046875,-0.027764655649662018,0.6480454802513123,-1.430426001548767
1666761414407707000,3.874706787109375,-0.06412049382925034,0.6676167845726013,-1.7497236728668213
1666761414427652000,3.894652099609375,-0.06517401337623596,0.40047401189804077,-2.0084381103515625
1666761414447597000,3.91459716796875,-0.10550596565008163,0.25841712951660156,-2.3803911209106445
1666761414467542300,3.934542236328125,-0.18779440224170685,0.2863023281097412,-2.7400786876678467
1666761414487488000,3.954488037109375,-0.2756596505641937,0.4839410185813904,-2.8764781951904297
1666761414507432000,3.974431884765625,-0.23848265409469604,0.6157406568527222,-3.0151031017303467
1666761414527378200,3.994378173828125,-0.06634928286075592,0.7084162831306458,-3.1743996143341064
1666761414547323000,4.014322998046875,-0.043863896280527115,0.6841033101081848,-3.3245527744293213
1666761414567268000,4.03426806640625,-0.13190922141075134,0.7028699517250061,-3.511549949645996
1666761414587213000,4.054213134765625,-0.20368793606758118,0.7859874367713928,-3.5561323165893555
1666761414607159000,4.074158935546875,-0.18394894897937775,0.8209916353225708,-3.6245803833007812
1666761414627104000,4.09410400390625,-0.0780477300286293,0.783750057220459,-3.6131694316864014
1666761414647049200,4.11404931640625,-0.05906728282570839,0.551548421382904,-3.3887057304382324
1666761414666994200,4.133994140625,-0.15025238692760468,0.16852353513240814,-3.216343641281128
1666761414686940200,4.153940185546875,-0.15224897861480713,0.24373717606067657,-2.9603676795959473
1666761414706885000,4.173885009765625,-0.1498248130083084,0.4133254885673523,-2.828136682510376
1666761414726830000,4.193830078125,-0.14447925984859467,0.42064201831817627,-2.830233573913574
1666761414746776000,4.213776123046875,-0.16057908535003662,0.17016176879405975,-2.9010350704193115
1666761414766721000,4.233720947265625,-0.2688537538051605,0.013771029189229012,-3.2654871940612793
1666761414786666200,4.253666259765625,-0.33533775806427,0.3241584599018097,-3.6749165058135986
1666761414806611000,4.27361083984375,-0.21151240170001984,0.7096709609031677,-3.7629730701446533
1666761414826557200,4.29355712890625,0.022800646722316742,0.675744891166687,-3.3392410278320312
1666761414846502100,4.313502197265625,0.10958995670080185,0.5573299527168274,-2.610774517059326
1666761414866446800,4.33344677734375,0.013138730078935623,0.062277957797050476,-1.9577717781066895
1666761414886391000,4.35339111328125,-0.08329623192548752,-0.00972668081521988,-1.3528786897659302
1666761414906337000,4.3733369140625,-0.0686245858669281,0.07215528190135956,-0.7565374374389648
1666761414926282000,4.393281982421875,0.000609357375651598,-0.051531434059143066,-0.35835179686546326
1666761414946227200,4.413227294921875,0.04975782334804535,-0.13070949912071228,-0.0840972438454628
1666761414966172000,4.433171875,-0.015459543094038963,-0.3371831178665161,0.14456261694431305
1666761414986118000,4.453117919921875,-0.1101825162768364,-0.3161047697067261,0.3028862476348877
1666761415006063000,4.47306298828125,-0.14623533189296722,-0.197258859872818,0.33111536502838135
1666761415026007800,4.4930078125,-0.08691402524709702,-0.16087260842323303,0.2478148341178894
1666761415045954000,4.5129541015625,-0.026807215064764023,-0.16277313232421875,0.14058122038841248
1666761415065899000,4.53289892578125,-0.025111611932516098,-0.10490073263645172,0.06846713274717331
1666761415085844000,4.552843994140625,-0.040963321924209595,-0.10927019268274307,0.013833371922373772
1666761415105789000,4.572788818359375,-0.018931619822978973,-0.1512119024991989,0.1812313199043274
1666761415125735200,4.592735107421875,-0.0007014102302491665,-0.2165624499320984,0.40988609194755554
1666761415145680000,4.612679931640625,-0.01052558608353138,-0.26435530185699463,0.5883473753929138
1666761415165624800,4.632624755859375,-0.013055533170700073,-0.2354002445936203,0.7245635390281677
1666761415185570000,4.652570068359375,0.014028040692210197,0.05659986659884453,1.0505436658859253
1666761415205515800,4.672515869140625,0.13163816928863525,0.3852706253528595,1.7650833129882812
1666761415225461000,4.6924609375,0.2964261770248413,0.4213295578956604,2.618791341781616
1666761415245406000,4.712406005859375,0.37314993143081665,0.07348281145095825,3.496415853500366
1666761415265352000,4.73235205078125,0.4105616509914398,-0.2907889783382416,4.41421365737915
1666761415285297000,4.752296875,0.40891915559768677,-0.6370596289634705,5.288451671600342
1666761415305242000,4.7722421875,0.4566337466239929,-0.6539095640182495,6.105936050415039
1666761415325187000,4.79218701171875,0.47363612055778503,-0.8148151636123657,6.335235595703125
1666761415345133000,4.812133056640625,0.34987780451774597,-1.0257887840270996,5.962794780731201
1666761415365078000,4.832078125,0.17838437855243683,-1.128429889678955,5.1936140060424805
1666761415385023000,4.85202294921875,0.06789655238389969,-0.9816886782646179,4.337587833404541
1666761415404968000,4.871968017578125,0.010897072032094002,-0.9737756252288818,3.6837480068206787
1666761415424914000,4.891913818359375,0.1616082489490509,-0.8860302567481995,3.3691654205322266
1666761415444859100,4.911859130859375,0.2400675117969513,-0.8891005516052246,3.2063395977020264
1666761415464803800,4.931803955078125,0.17870111763477325,-0.6815342307090759,3.0221712589263916
1666761415484750000,4.95175,0.03435921669006348,-0.6132429242134094,2.701716184616089
1666761415504695000,4.971695068359375,-0.08655206114053726,-0.5273094177246094,2.4199037551879883
1666761415524639700,4.9916396484375,-0.15465597808361053,-0.3026390075683594,2.2939746379852295
1666761415544585000,5.0115849609375,-0.23421065509319305,-0.12338148057460785,2.114553213119507
1666761415564531000,5.031531005859375,-0.31650662422180176,-0.20281367003917694,2.0010509490966797
1666761415584476000,5.051475830078125,-0.38850241899490356,-0.3295504152774811,1.8506693840026855
1666761415604420900,5.0714208984375,-0.3881007134914398,-0.3967781364917755,1.591571569442749
1666761415624367000,5.0913671875,-0.3158731162548065,-0.39582929015159607,1.2982743978500366
1666761415644311800,5.111311767578125,-0.2398131936788559,-0.28822797536849976,0.9842243194580078
1666761415664257000,5.131257080078125,-0.3013516962528229,-0.22542992234230042,0.77311110496521
1666761415684202000,5.151201904296875,-0.33839157223701477,-0.19748762249946594,0.6200783252716064
1666761415704148000,5.17114794921875,-0.3480508029460907,-0.2632799744606018,0.3127836585044861
1666761415724093000,5.191093017578125,-0.268555223941803,-0.12914371490478516,0.032524026930332184
1666761415744038000,5.211037841796875,-0.16349241137504578,0.016855720430612564,-0.2799360752105713
1666761415763983000,5.230983154296875,-0.027332497760653496,0.188564732670784,-0.4792167842388153
1666761415783928800,5.2509287109375,0.07833360135555267,0.1856646090745926,-0.5726495385169983
1666761415803874000,5.2708740234375,0.12067585438489914,0.2875228524208069,-0.7712598443031311
1666761415823819000,5.290819091796875,0.08560527116060257,0.4537785053253174,-1.1463202238082886
1666761415843765000,5.310764892578125,0.09255661070346832,0.4901750981807709,-1.5181509256362915
1666761415863710000,5.3307099609375,0.12104419618844986,0.42507073283195496,-1.8898899555206299
1666761415883655400,5.350655517578125,0.14980660378932953,0.4326237440109253,-2.235557794570923
1666761415903600400,5.370600341796875,0.11527856439352036,0.44817906618118286,-2.520115375518799
1666761415923546600,5.390546630859375,0.08938264846801758,0.3507002294063568,-2.7818710803985596
1666761415943491600,5.41049169921875,0.07008879631757736,0.2775724530220032,-3.0805208683013916
1666761415963436500,5.4304365234375,0.03990902751684189,0.4032353162765503,-3.4563567638397217
1666761415983381500,5.450381591796875,0.013443308882415295,0.5575304627418518,-3.707327365875244
1666761416003327500,5.470327392578125,-0.05244047939777374,0.597489595413208,-3.713867664337158
1666761416023272400,5.4902724609375,-0.14852948486804962,0.6520474553108215,-3.783886194229126
1666761416043217400,5.510217529296875,-0.1785201132297516,0.8534993529319763,-3.7659366130828857
1666761416063163400,5.530163330078125,-0.2740125060081482,0.8260319232940674,-3.6840083599090576
1666761416083108400,5.5501083984375,-0.2989254891872406,0.5985612273216248,-3.4547975063323975
1666761416103053600,5.570053466796875,-0.20871157944202423,0.42725154757499695,-3.242858648300171
1666761416122998500,5.58999853515625,-0.11989066004753113,0.3485003411769867,-3.1364188194274902
1666761416142944500,5.609944580078125,-0.06664217263460159,0.3898572325706482,-3.1115403175354004
1666761416162889500,5.629889404296875,-0.08391674607992172,0.2285984605550766,-3.2066149711608887
1666761416182834400,5.64983447265625,-0.1764916181564331,0.227784663438797,-3.511404275894165
1666761416202780400,5.669780517578125,-0.16160055994987488,0.30440136790275574,-3.7174322605133057
1666761416222725400,5.689725341796875,-0.055192653089761734,0.4185130298137665,-3.62253737449646
1666761416242670600,5.709670654296875,-0.03078293800354004,0.43661174178123474,-3.5156428813934326
1666761416262615600,5.729615478515625,-0.09276164323091507,0.2641940116882324,-3.5154941082000732
1666761416282561500,5.7495615234375,-0.22307102382183075,-0.12902995944023132,-3.345435380935669
1666761416302506500,5.769506591796875,-0.21724967658519745,0.001165233552455902,-2.7721192836761475
1666761416322451700,5.78945166015625,-0.1039557009935379,0.026631327345967293,-2.0317296981811523
1666761416342396400,5.809396484375,0.0695461705327034,-0.12440185993909836,-1.3372642993927002
1666761416362342700,5.8293427734375,0.07120055705308914,-0.29530835151672363,-0.8894575238227844
1666761416382287600,5.84928759765625,0.00989205576479435,-0.1696113497018814,-0.9051443338394165
1666761416402232300,5.869232421875,0.027059024199843407,-0.21353372931480408,-0.865767240524292
1666761416422178600,5.889178466796875,0.06507213413715363,-0.3621091842651367,-0.4097757041454315
1666761416442123500,5.90912353515625,0.08323805034160614,-0.28944697976112366,0.3956035077571869
1666761416462068500,5.929068359375,0.020622730255126953,-0.26133993268013,1.1928942203521729
1666761416482013400,5.949013427734375,-0.07390442490577698,-0.21693730354309082,1.914588451385498
1666761416501959700,5.968959716796875,-0.12363836914300919,-0.29643067717552185,2.5029497146606445
1666761416521904400,5.988904296875,-0.1076865941286087,-0.4847770631313324,2.9013071060180664
1666761416541849600,6.008849609375,-0.0853796973824501,-0.5501686334609985,3.027395725250244
1666761416561795600,6.028795654296875,-0.12467369437217712,-0.43585440516471863,2.9240803718566895
1666761416581740500,6.048740478515625,-0.15466564893722534,-0.25609245896339417,2.7182140350341797
1666761416601685500,6.068685546875,-0.045576151460409164,-0.20866262912750244,2.611830472946167
1666761416621630500,6.08863037109375,0.126804381608963,-0.2665528953075409,2.856283664703369
1666761416641576400,6.108576416015625,0.1452004611492157,-0.37775862216949463,3.0699589252471924
1666761416661521400,6.128521484375,0.15023411810398102,-0.6118072867393494,3.0213215351104736
1666761416681466600,6.148466552734375,0.19098998606204987,-0.650650680065155,2.7832939624786377
1666761416701411600,6.16841162109375,0.22784259915351868,-0.40156227350234985,2.577590227127075
1666761416721357600,6.188357666015625,0.2057618796825409,-0.24459314346313477,2.5196335315704346
1666761416741302500,6.208302490234375,0.14290569722652435,-0.1566646248102188,2.6905202865600586
1666761416761247500,6.22824755859375,0.11168906837701797,-0.1522805094718933,2.8793983459472656
1666761416781193500,6.248193359375,0.15865899622440338,-0.2705235779285431,2.954404592514038
1666761416801138400,6.268138427734375,0.15205346047878265,-0.3748838007450104,2.9867653846740723
1666761416821083600,6.288083740234375,0.1191343367099762,-0.2306084930896759,3.032615900039673
1666761416841028400,6.3080283203125,0.0781341940164566,-0.09382225573062897,3.143202304840088
1666761416860974600,6.327974609375,0.046699635684490204,-0.2587285041809082,3.234903573989868
1666761416880919600,6.34791943359375,0.033077172935009,-0.3934949040412903,3.2974660396575928
1666761416900865000,6.367864990234375,0.010663451626896858,-0.3798469305038452,3.22536301612854
1666761416920811300,6.387811279296875,-0.040309056639671326,-0.3752424716949463,3.0148117542266846
1666761416940756000,6.407755859375,-0.12935428321361542,-0.2600633502006531,2.7059218883514404
1666761416960701000,6.427700927734375,-0.13346342742443085,-0.24383413791656494,2.4369850158691406
1666761416980646100,6.447646240234375,-0.07089298963546753,-0.26081445813179016,2.247164487838745
1666761417000592000,6.467591796875,-0.11294887959957123,-0.3661249876022339,2.0124592781066895
1666761417020537000,6.487537109375,-0.17996403574943542,-0.3289977014064789,1.7460960149765015
1666761417040482000,6.50748193359375,-0.232680082321167,-0.11732802540063858,1.5545328855514526
1666761417060428000,6.527427978515625,-0.19283917546272278,-0.17620298266410828,1.358912467956543
1666761417080373000,6.547373046875,-0.08319607377052307,-0.3602915406227112,1.1512203216552734
1666761417100318200,6.567318115234375,-0.05732244253158569,-0.36246258020401,0.7793495059013367
1666761417120263200,6.58726318359375,-0.09107450395822525,-0.1922423541545868,0.3304034471511841
1666761417140209200,6.607209228515625,-0.10872958600521088,0.04088415205478668,-0.04738950729370117
1666761417160154000,6.627154052734375,-0.05915223807096481,0.16768966615200043,-0.37947800755500793
1666761417180099000,6.64709912109375,0.036404889076948166,0.20524056255817413,-0.7130308151245117
1666761417200044000,6.6670439453125,0.0745600089430809,0.2399267852306366,-1.045027732849121
1666761417219990000,6.686989990234375,0.049238476902246475,0.3130362927913666,-1.314373254776001
1666761417239935200,6.706935302734375,0.0025630355812609196,0.5089918971061707,-1.561944842338562
1666761417259880200,6.726880126953125,-0.017849504947662354,0.5275838971138,-1.8418493270874023
1666761417279826200,6.746826171875,0.059050437062978745,0.41489845514297485,-2.225853681564331
1666761417299771100,6.766771240234375,0.1452503800392151,0.3745758533477783,-2.61397647857666
1666761417319716000,6.786716064453125,0.1490945667028427,0.37647002935409546,-2.885495662689209
1666761417339661000,6.8066611328125,0.10595020651817322,0.45531049370765686,-2.981455087661743
1666761417359607000,6.82660693359375,0.041329145431518555,0.5056259632110596,-3.051008462905884
1666761417379552000,6.846552001953125,0.0023944168351590633,0.44007861614227295,-3.098250150680542
1666761417399497000,6.8664970703125,0.05467690899968147,0.4975099265575409,-2.989999294281006
1666761417419443200,6.886443115234375,-0.0042983489111065865,0.5803318023681641,-3.1753931045532227
1666761417439388200,6.90638818359375,-0.15364351868629456,0.44253817200660706,-3.4844985008239746
1666761417459333000,6.9263330078125,-0.2864120602607727,0.32926568388938904,-3.622316360473633
1666761417479278000,6.946278076171875,-0.2920154333114624,0.574311375617981,-3.5499823093414307
1666761417499224000,6.96622412109375,-0.34925058484077454,0.4639202952384949,-3.434755563735962
1666761417519169000,6.9861689453125,-0.41569748520851135,0.3168565630912781,-3.4113287925720215
1666761417539114000,7.006114013671875,-0.4462766647338867,0.2947663962841034,-3.3631234169006348
1666761417559060200,7.026060302734375,-0.36925649642944336,0.3858271539211273,-3.263820171356201
1666761417579005000,7.0460048828125,-0.1973487287759781,0.41729170083999634,-3.10349440574646
1666761417598950100,7.0659501953125,-0.12345881760120392,0.30602172017097473,-3.156503438949585
1666761417618895000,7.08589501953125,-0.11446699500083923,0.25040775537490845,-3.4049384593963623
1666761417638841000,7.105841064453125,-0.10239464789628983,0.3973435163497925,-3.7159087657928467
1666761417658786000,7.1257861328125,-0.04667950049042702,0.6129846572875977,-3.8284595012664795
1666761417678731300,7.145731201171875,0.018868321552872658,0.502746045589447,-3.4979453086853027
1666761417698677000,7.165677001953125,0.039431940764188766,-0.008027851581573486,-2.6443564891815186
1666761417718622000,7.1856220703125,0.035847220569849014,-0.2864125370979309,-1.6827011108398438
1666761417738567200,7.205567138671875,0.05083254352211952,-0.0009103473275899887,-0.9418280124664307
1666761417758512000,7.22551220703125,0.17346173524856567,0.2935693860054016,-0.5796309113502502
1666761417778458000,7.2454580078125,0.19682681560516357,0.18714213371276855,-0.5293748378753662
1666761417798403000,7.265403076171875,0.08615279942750931,-0.1785508692264557,-0.3573007583618164
1666761417818348300,7.285348388671875,0.012418188154697418,-0.48539242148399353,0.14185726642608643
1666761417838294000,7.3052939453125,-0.0036743227392435074,-0.41406509280204773,0.8608251810073853
1666761417858239200,7.3252392578125,-0.03563971072435379,-0.2591644525527954,1.6596786975860596
1666761417878184200,7.34518408203125,-0.0513802208006382,-0.2059692144393921,2.4490671157836914
1666761417898129000,7.36512890625,-0.04199386015534401,-0.6202435493469238,2.9642462730407715
1666761417918075100,7.3850751953125,-0.12997151911258698,-1.0682388544082642,2.9954886436462402
1666761417938020000,7.40502001953125,-0.15731246769428253,-0.9280778765678406,2.968743085861206
1666761417957965000,7.424965087890625,-0.013181591406464577,-0.37802648544311523,3.1783509254455566
1666761417977911000,7.4449111328125,0.029308201745152473,-0.44668057560920715,3.5217654705047607
1666761417997856300,7.464856201171875,0.011060833930969238,-0.6673676371574402,3.923781156539917
1666761418017801000,7.484801025390625,-0.10146336257457733,-0.798559308052063,4.085144996643066
1666761418037746200,7.50474609375,-0.14163145422935486,-0.7440561652183533,3.849916934967041
1666761418057692200,7.524692138671875,-0.08032523840665817,-0.45448577404022217,3.3987233638763428
1666761418077637000,7.54463720703125,-0.008471457287669182,-0.010509481653571129,3.007136344909668
1666761418097582000,7.56458203125,0.028916161507368088,0.4220961928367615,2.9790751934051514
1666761418117528300,7.5845283203125,0.03581186756491661,0.4159974455833435,3.0702223777770996
1666761418137473000,7.60447314453125,0.10404948145151138,0.12694817781448364,3.077986001968384
1666761418157418000,7.62441796875,0.16749347746372223,-0.20634448528289795,3.003750801086426
1666761418177363200,7.64436328125,0.12979194521903992,-0.33857181668281555,2.9594907760620117
1666761418197309000,7.664308837890625,-0.004156038630753756,-0.3560384511947632,3.0977137088775635
1666761418217254100,7.684254150390625,0.0029663830064237118,-0.34404605627059937,3.1992928981781006
1666761418237199000,7.70419921875,0.08699958026409149,-0.2706431746482849,3.1452059745788574
1666761418257145000,7.72414501953125,0.009765790775418282,-0.14602766931056976,3.038304567337036
1666761418277090000,7.744090087890625,-0.07474362105131149,-0.17576324939727783,2.863079786300659
1666761418297035000,7.764034912109375,-0.11864831298589706,-0.20441171526908875,2.526193380355835
1666761418316980200,7.783980224609375,-0.0574471578001976,-0.14973783493041992,2.0169379711151123
1666761418336926000,7.803926025390625,-0.043858617544174194,-0.14632077515125275,1.5035686492919922
1666761418356871200,7.82387109375,-0.08658149093389511,-0.20117440819740295,1.1540982723236084
1666761418376816000,7.843816162109375,-0.19279107451438904,-0.17922791838645935,0.9093100428581238
1666761418396762000,7.86376220703125,-0.2735077738761902,-0.14862653613090515,0.6814003586769104
1666761418416707000,7.88370703125,-0.2430122345685959,-0.1807548701763153,0.3718409240245819
1666761418436652300,7.90365234375,-0.17552275955677032,-0.22950920462608337,0.03069416806101799
1666761418456598000,7.923597900390625,-0.12041420489549637,-0.20465371012687683,-0.27209797501564026
1666761418476543200,7.943543212890625,-0.051264673471450806,0.08263733983039856,-0.584182620048523
1666761418496488200,7.96348828125,0.01914787106215954,0.33113616704940796,-0.9966127276420593
1666761418516433000,7.983432861328125,0.058081042021512985,0.2875644564628601,-1.3621126413345337
1666761418536379100,8.003379150390625,0.013042470440268517,0.20065626502037048,-1.5930898189544678
1666761418556324000,8.023323974609376,-0.06447331607341766,0.19946348667144775,-1.8377927541732788
1666761418576269000,8.04326904296875,-0.057555824518203735,0.2862444818019867,-2.2310171127319336
1666761418596215000,8.063215087890624,-0.018051745370030403,0.3627433478832245,-2.5807712078094482
1666761418616160300,8.08316015625,-0.03251472860574722,0.3278593420982361,-2.7676236629486084
1666761418636105000,8.10310498046875,-0.048552703112363815,0.3943283259868622,-3.072871208190918
1666761418656050000,8.1230498046875,-0.04781512916088104,0.590300440788269,-3.441210985183716
1666761418675996200,8.14299609375,-0.04679421707987785,0.7982723712921143,-3.7742116451263428
1666761418695940900,8.16294091796875,-0.0826813131570816,0.9617595672607422,-4.18635892868042
1666761418715886000,8.182885986328126,-0.16008156538009644,0.9779128432273865,-4.6116533279418945
1666761418735832000,8.20283203125,-0.19803409278392792,0.9477906227111816,-4.541332244873047
1666761418755777000,8.222777099609376,-0.2754708528518677,0.829483151435852,-4.197784900665283
1666761418775722000,8.242721923828125,-0.2927316725254059,0.6730472445487976,-3.7502870559692383
1666761418795667200,8.262667236328125,-0.33164504170417786,0.528863251209259,-3.340214252471924
1666761418815613000,8.282613037109375,-0.4140831232070923,0.2335895597934723,-3.058642864227295
1666761418835558100,8.30255810546875,-0.475108802318573,0.2911534607410431,-2.7946088314056396
1666761418855503000,8.322503173828125,-0.40829071402549744,0.3832610249519348,-2.517895460128784
1666761418875449000,8.342448974609376,-0.310526967048645,0.4517110586166382,-2.204660177230835
1666761418895394000,8.36239404296875,-0.25938916206359863,0.355373352766037,-1.9565880298614502
1666761418915339000,8.382339111328125,-0.2944181263446808,0.2839212417602539,-2.054327964782715
1666761418935286000,8.4022861328125,-0.32341668009757996,0.3495081067085266,-2.4854934215545654
1666761418955232300,8.422232177734376,-0.29193130135536194,0.3332364857196808,-2.735618829727173
1666761418975177000,8.442177001953125,-0.24226117134094238,0.010206053033471107,-2.5346288681030273
1666761418995122200,8.4621220703125,-0.1857423335313797,-0.025696061551570892,-2.2285408973693848
1666761419015067100,8.482067138671875,-0.12012617290019989,-0.10348427295684814,-1.8133864402770996
1666761419035013000,8.50201318359375,-0.1168864369392395,-0.3387431204319,-1.3759046792984009
1666761419054958000,8.5219580078125,-0.123797707259655,-0.38607966899871826,-0.9269840717315674
1666761419074903000,8.541903076171875,-0.09845030307769775,-0.3096924424171448,-0.6202629804611206
1666761419094849000,8.56184912109375,-0.01959059201180935,-0.3802346885204315,-0.33211058378219604
1666761419114794000,8.5817939453125,0.009893490001559258,-0.5004143714904785,0.06114157661795616
1666761419134739200,8.6017392578125,-0.03703468292951584,-0.31604376435279846,0.3608517050743103
1666761419154685000,8.621684814453126,-0.009226245805621147,-0.1392401158809662,0.5900136828422546
1666761419174630100,8.641630126953125,0.06591565161943436,0.14813686907291412,1.0222532749176025
1666761419194575000,8.6615751953125,0.11889380216598511,0.17106670141220093,1.7880916595458984
1666761419214520000,8.68152001953125,0.16473634541034698,-0.33673182129859924,2.7952606678009033
1666761419234466000,8.701466064453125,0.132400244474411,-1.0321593284606934,3.739168405532837
1666761419254411000,8.721410888671874,0.06273361295461655,-1.3670470714569092,4.280917644500732
1666761419274356200,8.741356201171875,0.00837128795683384,-1.3279744386672974,4.481906890869141
1666761419294302000,8.761302001953124,0.054286010563373566,-1.0140544176101685,4.491633415222168
1666761419314247200,8.7812470703125,0.11816689372062683,-0.789017379283905,4.320352554321289
1666761419334192000,8.801192138671874,0.11367980390787125,-0.47553619742393494,3.7632131576538086
1666761419354137000,8.82113720703125,0.1384505182504654,0.10601481795310974,2.7111873626708984
1666761419374083000,8.8410830078125,0.20835214853286743,0.5297062397003174,1.870349645614624
1666761419394028300,8.8610283203125,0.2302984595298767,0.4346153736114502,1.508144736289978
1666761419413973000,8.880972900390624,0.17587044835090637,0.011328322812914848,1.6679104566574097
1666761419433919200,8.900919189453125,0.11708876490592957,-0.37579816579818726,2.1958975791931152
1666761419453864200,8.9208642578125,0.11732248216867447,-0.5763200521469116,2.7430970668792725
1666761419473809000,8.940808837890625,0.06617323309183121,-0.660108745098114,3.1300060749053955
1666761419493755100,8.960755126953124,-0.016136594116687775,-0.7110989689826965,3.3862500190734863
1666761419513700000,8.9807001953125,-0.09244055300951004,-0.7203687429428101,3.4927542209625244
1666761419533645000,9.00064501953125,-0.1322278529405594,-0.5549646615982056,3.528947114944458
1666761419553590000,9.020590087890625,-0.06786637008190155,-0.5130439400672913,3.5898029804229736
1666761419573536300,9.040536376953124,0.008018368855118752,-0.7300019264221191,3.423069715499878
1666761419593481000,9.06048095703125,0.08943333476781845,-0.8793227672576904,3.087665319442749
1666761419613426000,9.080426025390626,0.1755085289478302,-0.9055678844451904,2.9089531898498535
1666761419633372200,9.1003720703125,0.12075767666101456,-0.6933497786521912,2.6261558532714844
1666761419653316900,9.12031689453125,0.0729760229587555,-0.3826858401298523,2.226175308227539
1666761419673262000,9.140261962890625,0.017193254083395004,-0.2392999231815338,1.6163707971572876
1666761419693208000,9.1602080078125,-0.07555994391441345,-0.1170542985200882,0.880620539188385
1666761419713153000,9.180153076171875,-0.18473196029663086,0.037058450281620026,0.21827851235866547
1666761419733098000,9.200097900390626,-0.2385895997285843,0.12186355143785477,-0.3853427767753601
1666761419753043200,9.220043212890625,-0.2135620415210724,0.22714973986148834,-0.8616132736206055
1666761419772989000,9.239989013671876,-0.176878422498703,0.35292404890060425,-1.157227873802185
1666761419792934100,9.25993408203125,-0.17043088376522064,0.6498867869377136,-1.4625859260559082
1666761419812879000,9.279879150390625,-0.16094107925891876,0.863547682762146,-1.7835363149642944
1666761419832825000,9.2998251953125,-0.12082801759243011,0.7308298945426941,-2.062376022338867
1666761419852770000,9.31977001953125,-0.02223316580057144,0.4732791781425476,-2.331395149230957
1666761419872715000,9.339715087890625,0.08814537525177002,0.414352148771286,-2.550830602645874
1666761419892660200,9.35966015625,0.12910017371177673,0.574766218662262,-2.7507803440093994
1666761419912605000,9.37960498046875,0.07526586949825287,0.6934572458267212,-2.9335944652557373
1666761419932550100,9.399550048828125,0.04735632240772247,0.6299811005592346,-3.088330030441284
1666761419952495000,9.4194951171875,0.04088844358921051,0.455890417098999,-3.205341339111328
1666761419972441000,9.439441162109375,0.010707349516451359,0.5680103898048401,-3.2385284900665283
1666761419992386000,9.459385986328124,-0.023721113801002502,0.7444909811019897,-3.245166063308716
1666761420012331000,9.4793310546875,-0.10405813902616501,0.6859930753707886,-3.265483856201172
1666761420032277000,9.499277099609374,-0.21182052791118622,0.3868904113769531,-3.306178569793701
1666761420052222000,9.519221923828125,-0.23305346071720123,0.2891331613063812,-3.333171844482422
1666761420072167200,9.539167236328124,-0.24613206088542938,0.3988301157951355,-3.2495017051696777
1666761420092112100,9.559112060546875,-0.23841989040374756,0.570254385471344,-3.0442910194396973
1666761420112058000,9.57905810546875,-0.2334112972021103,0.4410041570663452,-2.7784292697906494
1666761420132003000,9.599003173828125,-0.21705476939678192,0.31393370032310486,-2.6598057746887207
1666761420151948300,9.6189482421875,-0.1476476937532425,0.21789461374282837,-2.6501500606536865
1666761420171894000,9.63889404296875,-0.08876041322946548,0.20765841007232666,-2.7296690940856934
1666761420191839200,9.658839111328126,-0.018224328756332397,0.17913609743118286,-2.8035519123077393
1666761420211784200,9.6787841796875,0.03234848380088806,0.39756664633750916,-2.846086025238037
1666761420231730200,9.698730224609376,0.08256956189870834,0.34443485736846924,-2.8760406970977783
1666761420251675100,9.718675048828125,0.06688007712364197,0.10045787692070007,-2.7123196125030518
1666761420271620000,9.7386201171875,-0.0030996017158031464,0.07927360385656357,-2.433818817138672
1666761420291565000,9.75856494140625,-0.03150329738855362,0.24364641308784485,-2.105531930923462
1666761420311511000,9.778510986328126,0.023542489856481552,0.2723821997642517,-1.6168779134750366
1666761420331456300,9.798456298828125,0.11073992401361465,0.18669568002223969,-1.131117582321167
1666761420351401200,9.818401123046876,0.1223747730255127,0.11601586639881134,-0.8485863208770752
1666761420371347200,9.83834716796875,0.06768331676721573,0.14585301280021667,-0.9437807202339172
1666761420391292200,9.858292236328126,0.052471455186605453,0.04853816330432892,-1.0785746574401855
1666761420411237000,9.878237060546875,0.036136381328105927,-0.2466335892677307,-0.9365068674087524
1666761420431183000,9.89818310546875,0.012321555987000465,-0.3173186779022217,-0.5306802988052368
1666761420451128300,9.91812841796875,0.01161997765302658,-0.3752671182155609,0.07764244079589844
1666761420471073000,9.938072998046875,-0.040874410420656204,-0.4363873600959778,0.6163333058357239
1666761420491018000,9.95801806640625,-0.1536809653043747,-0.4868388772010803,0.995873749256134
1666761420510964200,9.977964111328125,-0.2117055505514145,-0.17261064052581787,1.355907917022705
1666761420530909200,9.9979091796875,-0.10750710964202881,0.24413079023361206,2.074398994445801
1666761420550854100,10.017854248046875,0.05848822370171547,-0.026976026594638824,2.9274075031280518
1666761420570800000,10.037800048828124,0.06655280292034149,-0.46208620071411133,3.6735880374908447
1666761420590745000,10.0577451171875,-0.04025224596261978,-0.5728526711463928,4.353695869445801
1666761420610690000,10.07768994140625,-0.17008058726787567,-0.6812182664871216,4.606877326965332
1666761420630636300,10.09763623046875,-0.2269054651260376,-1.121537208557129,4.462265968322754
1666761420650581200,10.117581298828124,0.005621553864330053,-1.095075011253357,4.461454391479492
1666761420670526000,10.13752587890625,0.15068408846855164,-0.5027989745140076,4.224829196929932
1666761420690471200,10.15747119140625,0.2680787742137909,-0.0635753646492958,3.6437060832977295
1666761420710417200,10.177417236328125,0.2891402244567871,-0.23023121058940887,2.8704915046691895
1666761420730362000,10.197362060546874,0.28303903341293335,-0.591261625289917,2.263442277908325
1666761420750307000,10.21730712890625,0.22507470846176147,-0.6362323760986328,2.085836172103882
1666761420770253000,10.237253173828124,0.15110233426094055,-0.5324943661689758,2.2899882793426514
1666761420790198000,10.257197998046875,0.053672969341278076,-0.4899052679538727,2.6426944732666016
1666761420810143200,10.277143310546874,-0.013188976794481277,-0.36065417528152466,3.0073273181915283
1666761420830089200,10.297089111328125,-0.06030413508415222,-0.2065197229385376,3.193476915359497
1666761420850034200,10.3170341796875,-0.09739404916763306,-0.08735940605401993,3.196780204772949
1666761420869979100,10.336979248046875,-0.08158575743436813,-0.14120563864707947,3.1501500606536865
1666761420889925000,10.356925048828124,0.032000746577978134,-0.3038918972015381,2.955594778060913
1666761420909870000,10.3768701171875,0.0401635505259037,-0.3031178116798401,2.6804580688476562
1666761420929815300,10.396815185546876,0.003606586717069149,-0.5273510217666626,2.3370797634124756
1666761420949760300,10.41676025390625,0.048856958746910095,-0.6895551681518555,1.8743455410003662
1666761420969706200,10.436706298828126,0.04931122809648514,-0.6403329372406006,1.3389835357666016
1666761420989651200,10.456651123046875,0.03415662795305252,-0.530335009098053,0.7779569625854492
1666761421009596200,10.47659619140625,-0.03232499584555626,-0.43339091539382935,0.1794557124376297
1666761421029542100,10.496542236328125,-0.14002780616283417,-0.2648389935493469,-0.3118921220302582
1666761421049487000,10.516487060546876,-0.23560570180416107,-0.15847346186637878,-0.7115684151649475
1666761421069432300,10.536432373046875,-0.1654173582792282,-0.11036282032728195,-0.9260298013687134
1666761421089378000,10.5563779296875,-0.07848399132490158,-0.05987710505723953,-0.9756301641464233
1666761421109323300,10.5763232421875,-0.039529986679553986,0.03491561859846115,-1.073215365409851
1666761421129268200,10.596268310546876,-0.029751494526863098,0.11151088774204254,-1.1998863220214844
1666761421149213400,10.61621337890625,-0.054979003965854645,0.30209818482398987,-1.4194624423980713
1666761421169159200,10.6361591796875,-0.05926189944148064,0.5616069436073303,-1.6659194231033325
1666761421189104400,10.6561044921875,-0.10386297851800919,0.6622483134269714,-1.901933193206787
1666761421209049300,10.67604931640625,-0.12547627091407776,0.6417955160140991,-2.2127537727355957
1666761421228995300,10.695995361328125,-0.14327886700630188,0.4428770840167999,-2.5215394496917725
1666761421248940300,10.715940185546875,-0.1266411691904068,0.4643970727920532,-2.815584659576416
1666761421268885200,10.73588525390625,-0.11064700782299042,0.6528693437576294,-3.1883904933929443
1666761421288831200,10.755831298828125,-0.1410370171070099,0.7740839719772339,-3.599440097808838
1666761421308776200,10.775776123046874,-0.170216366648674,0.8452433347702026,-3.8669793605804443
1666761421328721400,10.795721435546875,-0.19973303377628326,0.9095144867897034,-3.8992483615875244
1666761421348666000,10.815666015625,-0.18057824671268463,0.92166668176651,-3.6554315090179443
1666761421368612400,10.8356123046875,-0.2103944569826126,0.7782573103904724,-3.1682584285736084
1666761421388557300,10.855557373046874,-0.241253063082695,0.8853839039802551,-2.645296335220337
1666761421408502000,10.875501953125,-0.2892865240573883,0.7809119820594788,-2.215049982070923
1666761421428448300,10.8954482421875,-0.20506469905376434,0.5015367865562439,-1.845274567604065
1666761421448393200,10.915393310546875,-0.09764575958251953,0.32491356134414673,-1.573123574256897
1666761421468338200,10.935338134765624,-0.08493349701166153,0.4550918936729431,-1.1290439367294312
1666761421488284200,10.9552841796875,-0.15154512226581573,0.1706109195947647,-1.193859577178955
1666761421508229400,10.9752294921875,-0.03978190943598747,0.0725509524345398,-1.2410897016525269
1666761421528174000,10.995174072265625,0.01215851865708828,0.18482796847820282,-1.0333130359649658
1666761421548120300,11.015120361328124,0.05293777212500572,0.3938779830932617,-0.6165463328361511
