time,seconds_elapsed,z,y,x
1667080649362587100,0.026587158203125,0.5467071228161454,0.03231646171510219,-0.3385770711425692
1667080649382529300,0.046529296875,1.4177227721214294,-0.053070495930314064,0.16893997786194084
1667080649402471200,0.06647119140625,0.7853180182754993,-0.40189913116991516,1.2876292422652245
1667080649422413000,0.0864130859375,-0.21308131740540265,-0.5777829368203878,-0.08226067885104567
1667080649442356200,0.106356201171875,-1.6914906134188175,-0.672754299890995,-0.9031219754010439
1667080649462298000,0.126298095703125,-1.430472363579273,0.6938169616639613,-0.27920827878564597
1667080649482240300,0.146240234375,-0.1241325756251812,0.005785597664117813,-0.1401695547232404
1667080649502182100,0.16618212890625,-0.4230956484556198,-0.26007249342203137,-0.7340124861910938
1667080649522124000,0.1861240234375,-1.9664917959034443,-1.2364660412609576,-3.4254064101129766
1667080649542066200,0.206066162109375,-1.4401190205857157,-0.3554951073914766,-2.688863236400485
1667080649562008000,0.226008056640625,0.1888210286349058,-0.30865912193655964,0.10439582869373261
1667080649581950200,0.2459501953125,0.6878212283805012,-1.890478231281042,-0.6858350960645824
1667080649601893000,0.26589306640625,-0.09894318931102752,-2.515696873015165,-4.153064266580343
1667080649621834800,0.285834716796875,-0.6668982673391699,-3.348547626838088,-5.4754930195480584
1667080649641777000,0.30577685546875,0.42222704892754553,-1.8712661658108234,-3.3705551682457324
1667080649661718800,0.32571875,-0.4893874450087547,-0.9021113370537758,-1.6917603702709079
1667080649681661000,0.345660888671875,-1.5416764840483665,0.7727671642601489,-0.8559095578491688
1667080649701602800,0.365602783203125,-2.5504922920644284,1.8731366358578203,-0.2296341005384922
1667080649721545000,0.385544921875,0.6506617105484008,2.892497218763828,0.8197776294991374
1667080649741486800,0.40548681640625,1.9159248072266577,2.183849767714739,2.1693252755388617
1667080649761429800,0.4254296875,2.1212045109704136,2.051870570242405,2.4332353012971577
1667080649781372000,0.445371826171875,1.2441852373361586,1.777585427072644,3.047624359850585
1667080649801313800,0.465313720703125,0.05554886874258518,1.1759013901829718,4.146200518290699
1667080649821256000,0.485255859375,-0.29229221676439043,1.2415081270813941,6.688642482629418
1667080649841198000,0.505197998046875,-1.6250985713616013,1.8937778573483228,8.216483333548902
1667080649861139700,0.5251396484375,-2.5168925125405193,1.5775345638930796,7.934075089678168
1667080649881081900,0.545081787109375,-1.5193872030898927,1.2974731754094362,8.059739697176218
1667080649901023700,0.565023681640625,-0.023550094674527643,0.8801607865303754,7.5230866431236265
1667080649920967000,0.584966796875,0.728560942786932,0.8446247782468795,6.406870783096552
1667080649940908800,0.60490869140625,0.7157017534747719,0.8295739241093396,4.598365317103267
1667080649960851000,0.624850830078125,0.2858075309202075,1.02821492049098,3.551200781470537
1667080649980792800,0.644792724609375,-0.9168561939820646,2.2518805168896914,3.627257016190886
1667080650000734700,0.664734619140625,-1.3387807528316973,2.438370472228527,2.307644197426736
1667080650020676900,0.6846767578125,-0.15268530089259147,1.7370915041208266,0.520269490006566
1667080650040619000,0.704618896484375,1.2285434315681456,1.0205044922441244,-0.5327864417523145
1667080650060561000,0.724560791015625,1.918570645560324,0.5575561413496732,-2.2227374245136975
1667080650080504000,0.744504150390625,0.8124588309183717,0.5883961007714271,-3.4567204167872667
1667080650100445700,0.76444580078125,-1.2460673978209496,1.3910206431567669,-2.639475812897086
1667080650120387800,0.784387939453125,-1.6369819013789295,1.170983223003149,-3.917899712182581
1667080650140329700,0.804329833984375,-1.5008882543250917,0.28125498218238354,-6.395845531213284
1667080650160272000,0.82427197265625,-1.0419380331560968,-0.5975327624291181,-7.349171507197618
1667080650180214000,0.844214111328125,-0.09639204352349043,-0.8045721693217754,-7.006905299213528
1667080650200156000,0.864156005859375,-0.7332298113808036,-0.46626668166220187,-6.334437999570369
1667080650220097800,0.884097900390625,-2.02332602828145,-0.24673311937749384,-5.829173770993948
1667080650240040700,0.904040771484375,-2.425641923558712,-0.5284837761223315,-6.4787915254473685
1667080650259982800,0.92398291015625,-1.9861466367051004,-0.9484364503771067,-7.114946571737527
1667080650279925000,0.943925048828125,-0.962904536190629,-1.283428283444047,-6.816190419656038
1667080650299867000,0.963866943359375,-0.663257572749257,-1.4202929148703813,-6.307744638434052
1667080650319809000,0.98380908203125,-0.7673238041624426,-1.3127438097774982,-5.7608548525273795
1667080650339750700,1.003750732421875,-0.8953776448845863,-0.732906278514862,-4.939339147189259
1667080650359692800,1.02369287109375,-0.996692824023962,0.08264087380766869,-3.9465792787000535
1667080650379635000,1.043635009765625,-1.2602546208664773,0.35378070468902584,-3.3841865109741684
1667080650399577900,1.063577880859375,-0.7747270661562681,0.7342793204337358,-2.0541458216980097
1667080650419520000,1.08352001953125,-0.6702484545499086,1.274535951936245,-1.7744269630417226
1667080650439462000,1.1034619140625,-1.2303589565575122,1.606911465024948,-1.5478294537201522
1667080650459403800,1.12340380859375,-1.5155550775811075,1.845028147226572,-0.15032765011684968
1667080650479346000,1.143345947265625,-0.08445727557986975,0.8056757466495037,0.7704629789710045
1667080650499287800,1.163287841796875,-0.47504532366245983,0.5408358926951885,1.1998188568651675
1667080650519230000,1.18322998046875,-1.3747528144448995,1.1402081455111504,2.139283480757475
1667080650539171800,1.203171875,-1.208671148623526,1.3249755148410796,2.7107348764687775
1667080650559115000,1.223114990234375,-0.4764174887984991,0.5338303978472948,3.0347485116645694
1667080650579057000,1.243056884765625,0.30485972965359687,0.07015139459073542,3.50388987198025
1667080650598998800,1.262998779296875,0.4078852198421955,0.27623978436887264,4.54192388343513
1667080650618940700,1.282940673828125,0.9212611509427427,0.3937596638560295,4.811725743710994
1667080650638882600,1.302882568359375,1.2571288900613784,0.2352116084098816,5.084202960675954
1667080650658824400,1.322824462890625,1.179623625576496,0.5506611211389303,6.315970614987611
1667080650678766600,1.3427666015625,0.5917898348629475,0.6157154848515987,7.229948915445804
1667080650698708500,1.36270849609375,0.6077697865441442,0.36617139970660206,7.52714556312561
1667080650718650600,1.382650634765625,0.8153796868011355,0.1681383060902357,7.931887224245071
1667080650738593500,1.402593505859375,-0.3351479004114866,0.42969256250262255,8.151873206472397
1667080650758535700,1.42253564453125,-1.2446958172068,0.6226777250796556,8.20791015099287
1667080650778477300,1.442477294921875,-1.2245283507078886,0.6907336086958646,8.06469644280076
1667080650798419500,1.46241943359375,-0.8414563773438334,0.40910102537274357,7.035731580725312
1667080650818361600,1.482361572265625,-0.580719867055118,0.03666062839925289,5.540100808537006
1667080650838303500,1.502303466796875,-0.46105713032037016,-0.3455886304050684,4.001729211252927
1667080650858245600,1.52224560546875,0.1782233545139432,-0.29560499457418915,2.580321613138914
1667080650878187500,1.5421875,-0.4494330357611179,0.40701895840167995,1.7456389677137136
1667080650898130400,1.56213037109375,-1.2837924405813217,1.761315260273218,1.5064634241089223
1667080650918072600,1.582072509765625,-1.7447192225202917,1.6562924587875603,0.7182277648210526
1667080650938014500,1.602014404296875,-0.7089137007698416,1.1828764898926019,-0.9239543355494737
1667080650957956600,1.62195654296875,0.1794189940392971,0.8122317441642284,-2.0706556424722073
1667080650977898500,1.6418984375,0.23056524390876293,1.040499817046523,-2.4563649786025286
1667080650997840600,1.661840576171875,-1.3914157799541949,1.5696809277832506,-2.9259117048487067
1667080651017782500,1.681782470703125,-3.226788502345979,1.3034668628662824,-4.533320305740833
1667080651037724400,1.701724365234375,-3.1899823279961943,0.049508419534564016,-6.718182465368509
1667080651057666600,1.72166650390625,-1.3263067634448409,-0.9455857371211052,-7.886888391089439
1667080651077609500,1.741609375,0.2076484787017107,-1.0328338124632834,-7.718231614083051
1667080651097551600,1.761551513671875,-0.5692585618421435,-0.4552425988227129,-6.707876175409555
1667080651117493500,1.781493408203125,-1.7979928398072718,0.04176058188676834,-6.045183250805735
1667080651137435400,1.801435302734375,-2.5280066117510196,-0.21551497429311275,-6.334765331828594
1667080651157377500,1.82137744140625,-2.230440253975987,-0.4765086742132902,-6.113981477221846
1667080651177319400,1.8413193359375,-1.391469848228991,-0.7254144614547491,-6.124800977399945
1667080651197261600,1.861261474609375,-0.4299658264860511,-0.963061188057065,-5.756664415100216
1667080651217203700,1.88120361328125,-0.42786476255357264,-0.9891747034788131,-4.710421085965633
1667080651237145300,1.901145263671875,-0.8466831720814109,-0.5447077656924725,-3.6919966148659586
1667080651257088500,1.921088623046875,-1.559646440503001,-0.4353285225629806,-3.9297856725484133
1667080651277030400,1.941030517578125,-1.708554560944438,0.10317980396747589,-3.323893662574887
1667080651296972500,1.96097265625,-2.1280007469817996,0.5862789624869823,-2.6508403797373172
1667080651316914400,1.98091455078125,-1.899794048897922,0.6050543901056051,-1.429195183250308
1667080651336856600,2.000856689453125,-1.3851228172898291,0.6797159555971622,-0.7159495907559991
1667080651356798700,2.020798828125,-1.428505155159533,0.6140431677252054,-0.9556064881369472
1667080651376740400,2.040740234375,-0.9885641703650355,0.1635673449128866,-1.1937415827780962
1667080651396682500,2.0606826171875,-0.31296500243693587,0.14395020577311515,-0.4708034117763862
1667080651416624600,2.080624755859375,-0.0829772661551833,0.7060819844752549,0.7564236399635672
1667080651436567600,2.100567626953125,-0.7177206920817494,1.429436006268859,1.1946417464882135
1667080651456509700,2.120509765625,-0.7737243188545108,1.6365584152698516,1.392156076927483
1667080651476451600,2.14045166015625,0.07681552865505219,1.2726812639802694,1.2912664297237992
1667080651496393500,2.1603935546875,0.46566316281110043,0.3985948289275169,1.1790358888164163
1667080651516335400,2.18033544921875,0.9641469374671577,0.15578735856115816,1.8516332445800303
1667080651536277500,2.200277587890625,0.6242074188649654,0.696566552633047,3.002814619526267
1667080651556219600,2.2202197265625,-0.3556786472648382,1.4621978736639023,4.122086944514513
1667080651576161500,2.24016162109375,-0.9671884971201419,0.8873129963725804,3.7956729701787233
1667080651596103400,2.260103515625,-0.14149901322871447,-0.23547405873835087,3.6207591786041853
1667080651616047600,2.280047607421875,0.11598813987523317,-1.3939882607907057,4.072826946783065
1667080651635989800,2.29998974609375,-0.08385112638026475,-1.4835446130752563,5.23054035384655
1667080651655931600,2.319931640625,-0.7826713031589985,-0.42933658867180347,7.002559378963708
1667080651675873800,2.339873779296875,-1.7960723931387066,0.4345195442676544,8.46086024518907
1667080651695815700,2.359815673828125,-2.307872453224659,0.13040683358907698,8.647164322566985
1667080651715757600,2.379757568359375,-1.8204691677704452,-0.1876619217276573,8.333817335075139
1667080651735699700,2.39969970703125,-1.1472568949788808,-0.22271219232082365,7.652435492092371
1667080651755641600,2.4196416015625,-0.4457239521101117,-0.23142858273983,6.8984449244946235
1667080651775583700,2.439583740234375,-0.2624067815884948,0.014692542219161987,6.664079703781009
1667080651795525600,2.459525634765625,-1.0405421948835254,0.8349234684437513,6.3327703586190935
1667080651815468500,2.479468505859375,-2.065560949681699,1.169052547201514,4.875341014531254
1667080651835410700,2.49941064453125,-1.9305469145581124,0.8113350875854491,2.884944611427188
1667080651855352600,2.5193525390625,-0.8229682422339916,0.36644729403853415,1.2201757084563374
1667080651875294700,2.539294677734375,-0.3161526925623417,0.8659767783552408,-0.11918746563950552
1667080651895236600,2.559236572265625,-0.2343523612320423,1.6456933233618736,-1.233317221841216
1667080651915178800,2.5791787109375,-0.6524190756097435,1.952368578004837,-2.6112422365814445
1667080651935120600,2.59912060546875,-0.5618690361127257,1.471215292856097,-3.903302447031438
1667080651955062500,2.6190625,0.23977555532455444,0.23296938244104384,-5.833886186468601
1667080651975004700,2.639004638671875,0.8651204537868499,-0.18893676396906375,-6.420650886645912
1667080651994947600,2.658947509765625,0.5567606070578098,0.3929267201632261,-5.859238069868088
1667080652014889700,2.6788896484375,-0.10440642315298318,0.38912089813947676,-6.224505214211344
1667080652034832000,2.698831787109375,-1.4256827912151813,-0.05840542721748352,-6.956183996757865
1667080652054773500,2.7187734375,-2.1761066062420604,-0.4752630580663681,-7.651310287454724
1667080652074715600,2.738715576171875,-1.4926473724633453,-0.9112374773174524,-7.851670362713932
1667080652094657500,2.758657470703125,-1.0344368637457488,-0.6079010117083787,-6.67351271803677
1667080652114599700,2.778599609375,-2.3770623093068597,0.07014905650317668,-5.2861283855557435
1667080652134541800,2.798541748046875,-2.705584654098749,-0.023308979395031928,-5.364516862615942
1667080652154483500,2.8184833984375,-0.871049259313941,-0.7288888595670461,-5.237201565301418
1667080652174426600,2.838426513671875,0.6434528020828962,-1.3021850063621998,-5.124357860931754
1667080652194368500,2.858368408203125,0.06121814655065536,-0.9320131388425826,-4.3110044192612165
1667080652214310700,2.878310546875,-1.589986633709073,0.08496727092862129,-3.5859456393763423
1667080652234252800,2.898252685546875,-2.298485031676292,0.5989221709609032,-2.9497406164646147
1667080652254194700,2.918194580078125,-1.0195172347724437,0.17747370519042013,-2.548384506130218
1667080652274136600,2.938136474609375,0.34404257000684735,0.21564532267451286,-1.6953160169258712
1667080652294078500,2.958078369140625,-0.06785130095481873,1.0190917028367519,-0.8889987575024366
1667080652314020600,2.9780205078125,-1.173284485682845,1.2308745048642158,-0.9191513191819191
1667080652333962800,2.997962646484375,-0.9592261399388313,0.49843116768598555,-0.7979562583133578
1667080652353904600,3.017904541015625,-0.5393184738695621,0.1785433802485466,-0.8259536877855658
1667080652373847800,3.037847900390625,-1.1356433218136428,0.8949509439051151,-0.09397708220309578
1667080652393789700,3.057789794921875,-2.6583690216764806,1.1459160017639398,0.09607494039833545
1667080652413731600,3.077731689453125,-2.492959556028247,1.1942273204684257,1.0894336515635252
1667080652433673700,3.097673828125,-1.6722320784583686,0.5078472308069467,1.2633558017522095
1667080652453615600,3.11761572265625,-1.3668138381391763,-0.2344476383000612,1.3528329513207078
1667080652473557800,3.137557861328125,-0.8971218582034111,-0.044807109975814816,2.3484558080255984
1667080652493499600,3.157499755859375,-0.4157163518592715,0.234382756370306,3.237686912979185
1667080652513441500,3.177441650390625,-0.26184914770573375,0.39212300256490706,4.130726178044081
1667080652533383700,3.1973837890625,-0.6453481143102049,0.20514146431684493,4.834124330262839
1667080652553326600,3.21732666015625,-0.8811936367094516,-0.4432563929527998,5.452935735303163
1667080652573268700,3.237268798828125,-1.2964473394930363,-0.47222646684944625,6.413679294067621
1667080652593210600,3.257210693359375,-1.1557783473476766,0.534372834160924,7.766772065368294
1667080652613152500,3.277152587890625,-0.6888356661200523,1.1243886450886726,8.36098883511722
1667080652633094700,3.2970947265625,0.26241905654817815,1.0149784222990275,8.332727201750874
1667080652653036500,3.31703662109375,-0.05750993968248367,1.570060867011547,8.838363770771027
1667080652672978700,3.336978759765625,-0.7780956658065319,1.7813070779442786,8.601915314042568
1667080652692920600,3.356920654296875,-0.81371146132797,1.3903589643776415,7.774889320850372
1667080652712862700,3.37686279296875,-0.6103729547798633,0.47682606959939,6.063714932796358
1667080652732804600,3.3968046875,-0.36257863591164347,-0.3235585849046707,4.795738777767122
1667080652752747500,3.41674755859375,-0.4517477424442768,-0.33167408682107924,4.018471671739221
1667080652772689700,3.436689697265625,-1.003727252705395,-0.07153086625039577,3.572515664438903
1667080652792631600,3.456631591796875,-2.3093170990750194,0.3280290083169937,2.3247651358366013
1667080652812573700,3.47657373046875,-3.2256384555280206,0.6355377911746501,1.0865890757873653
1667080652832515800,3.496515869140625,-1.8047277010202407,1.2686872259080408,0.48346039304733274
1667080652852457500,3.51645751953125,-0.15469371810555457,1.9237340196728705,-0.3429796169504523
1667080652872399600,3.536399658203125,-1.138653025023639,1.9470219562798738,-1.3359621882796286
1667080652892341500,3.556341552734375,-2.2816309275090694,1.8145172736287116,-2.6197856085211035
1667080652912283600,3.57628369140625,-2.5367034206867216,1.991052236664295,-4.063672164946794
1667080652932225800,3.596225830078125,-2.995667670381069,1.8767244312167166,-6.179386554068326
1667080652952168700,3.616168701171875,-2.350441136623919,0.13326865276098251,-8.322562950611115
1667080652972110600,3.636110595703125,-0.6528758794665336,-1.545133346503973,-9.76576620094776
1667080652992052500,3.656052490234375,-0.4465490047574043,-1.1250064847260712,-8.9007199814409
1667080653011994600,3.67599462890625,-2.8036016684755682,-0.17085399478971958,-7.733104773566127
1667080653031936800,3.695936767578125,-3.784171625216305,-0.029912323182821273,-8.473383626675606
1667080653051878700,3.715878662109375,-2.2692039921343325,-0.696820235133171,-9.159092685207725
1667080653071820500,3.735820556640625,0.3763490948498249,-0.6302221491098403,-8.074333455196022
1667080653091762400,3.755762451171875,1.1253808709964155,-0.134222592484951,-6.5222828766494985
1667080653111704600,3.77570458984375,0.2989291705608368,0.39975744296610355,-5.423007045507431
1667080653131646700,3.795646728515625,-1.1169427129969,0.6349409943252802,-5.415182635492086
1667080653151589600,3.815589599609375,-1.4452502459943293,-0.023210195195674896,-5.106709391516447
1667080653171531800,3.83553173828125,-0.2440168461561203,-0.1732183858335018,-4.34394427357167
1667080653191473700,3.8554736328125,-0.6630912762716412,0.24873978302478789,-4.2816015069052575
1667080653211415600,3.87541552734375,-1.7182722373604773,1.3345949915796518,-3.2202848195403813
1667080653231357700,3.895357666015625,-1.665985585284233,2.2737264379948376,-1.7349167904302476
1667080653251299600,3.915299560546875,-1.2922165700554846,1.8688474142313003,-1.2666010672837495
1667080653271241700,3.93524169921875,-0.36760844677239657,0.5175707524418831,-0.8862126339152455
1667080653291183600,3.95518359375,-0.9042159081175922,0.6263000072300434,-0.18108805976267903
1667080653311125500,3.97512548828125,-1.6276228291422128,1.2072867085278034,0.8907274809911847
1667080653331067600,3.995067626953125,-2.8756515901640056,1.3023621164947747,1.553921048593521
1667080653351009500,4.015009521484375,-2.5293057116508484,0.5874117659091949,1.9400532863110302
1667080653370951700,4.03495166015625,-1.0719368655785917,0.18577450054585934,2.2142434446737167
1667080653390893800,4.054893798828125,0.32170755021050573,0.30036534084379674,3.7157758421212432
1667080653410835500,4.07483544921875,0.45984804679155344,0.8104547976195812,5.669564223796129
1667080653430777600,4.094777587890625,-0.2542890877149999,1.5625176120251416,7.472358326405287
1667080653450720500,4.114720458984375,-1.1670669263422488,1.9714555557906626,8.543216456836461
1667080653470662700,4.13466259765625,-1.8100886435315011,1.2127525727182626,8.296167111116647
1667080653490604500,4.1546044921875,-0.6716951462268829,0.188259303098917,8.24575151360929
1667080653510546700,4.174546630859375,0.2206803942322731,-0.25487667834460737,7.96170953105688
1667080653530488800,4.19448876953125,-0.15181553232073783,0.25729835253357886,8.321049038916826
1667080653550430500,4.214430419921875,-0.5470680650830269,1.213663842344284,8.915685495382547
1667080653570372600,4.23437255859375,-0.15874796193242072,0.9696680389761925,8.579553260108828
1667080653590314800,4.254314697265625,-0.04384264885783195,0.34020927545428276,7.591853305357694
1667080653610256600,4.274256591796875,-0.5527325205855071,0.3204670486301184,6.380728626102209
1667080653630198000,4.294197998046875,-0.3292494900226593,0.5228080685734748,5.595527512204646
1667080653650141000,4.314140869140625,-0.1947293758958578,0.5103665201514959,4.704457793647051
1667080653670083000,4.3340830078125,0.046162323977053166,0.6043675768852234,3.5651579951524734
1667080653690025200,4.354025146484375,-0.28132132541686294,1.8753133953750132,2.811873237736523
1667080653709967000,4.373967041015625,-1.2094400871694087,2.533866151434183,1.34365303504318
1667080653729909200,4.3939091796875,-1.1626768746897578,2.3068635684430596,-0.7147305703550577
1667080653749851100,4.41385107421875,-1.1204977751299738,2.974792640134692,-0.8525292677611113
1667080653769793000,4.43379296875,-1.0225681467756629,3.4876071379601954,-0.7294552612781524
1667080653789736000,4.45373583984375,-1.9476877267122268,3.2441619542121884,-2.0883725009486076
1667080653809678000,4.473677978515625,-2.6042534006074067,2.1090093385249373,-4.998135035029053
1667080653829620200,4.4936201171875,-2.0391443596601486,-0.4257797729730606,-7.604490668612718
1667080653849562000,4.51356201171875,-1.0619508936151862,-2.076267929396033,-9.40000279752016
1667080653869504300,4.533504150390625,-0.2628162391722202,-1.586217052042484,-8.70983792862296
1667080653889446100,4.553446044921875,-0.454453494271636,-0.8601309749364853,-7.104955339077114
1667080653909388000,4.573387939453125,-1.289627138084173,-0.9716156659126282,-6.716541127902269
1667080653929330200,4.593330078125,-1.9763199469566344,-0.8633844237744808,-6.6518193571448325
1667080653949272000,4.61327197265625,-1.7669722631216047,-0.5716612390697002,-6.616161183786391
1667080653969214200,4.633214111328125,-1.3739216243177652,-0.7067968547463417,-6.902777985262871
1667080653989157000,4.6531572265625,-1.1916817276388405,-0.3961819225668907,-6.8466369958460325
1667080654009099000,4.67309912109375,-1.1077356164515018,-0.37705519729256626,-6.424223484435677
1667080654029041200,4.693041259765625,-0.9211980225786566,0.03858370541632175,-5.962884906825423
1667080654048983000,4.712983154296875,-1.038750343030691,0.13169804244339464,-4.930168583261967
1667080654068925200,4.73292529296875,-1.2260782104983925,0.23875498010516166,-4.033988097561895
1667080654088867000,4.7528671875,-1.260525839023292,0.5433785629153252,-3.760464878675341
1667080654108809200,4.772809326171875,-1.770753827486932,0.9867267258048057,-3.3280408453822132
1667080654128751000,4.792751220703125,-1.6345611039727925,0.6479109505355358,-3.210121445183456
1667080654148693000,4.81269287109375,-1.2237398306787013,-0.0814770907253027,-2.748127326273918
1667080654168635100,4.83263525390625,-1.8343942327484488,0.3786778300583362,-1.5999518551453946
1667080654188578000,4.852578125,-2.3229677310258148,1.1710732393741607,-0.28275398856848477
1667080654208520200,4.872520263671875,-2.628751589787006,2.236923186254501,0.6233445914905518
1667080654228462300,4.89246240234375,-2.5948025584340093,1.828852672973275,1.0430926830839364
1667080654248404000,4.912404052734375,-0.8431202189028263,0.6717120973616838,1.5369444870904088
1667080654268346000,4.93234619140625,-0.13981149853318928,0.2321779398024082,2.134684608659893
1667080654288288000,4.9522880859375,-0.7894725076064467,0.5641068781673908,2.9370886401623486
1667080654308230100,4.972230224609375,-1.6333346309177577,1.3919184687793253,3.7890591049969196
1667080654328172300,4.99217236328125,-1.7687958252869544,1.514146087566018,4.266215137203037
1667080654348114000,5.012114013671875,-0.8724626332432032,1.212332301479578,4.440139333218336
1667080654368056000,5.03205615234375,-0.6946953519336879,0.3773772688537836,3.9522506023347375
1667080654387999000,5.0519990234375,-0.044851972030848265,0.2242442241936922,4.629013845606148
1667080654407941000,5.071941162109375,0.29088965649008747,0.6718155577361583,5.726113209491968
1667080654427883300,5.09188330078125,0.15209727187156677,0.9780734637498855,6.006484979099035
1667080654447825200,5.1118251953125,0.17119959335699678,1.188762040799856,6.094994452679157
1667080654467767000,5.13176708984375,0.5976267243228852,1.2563830401301384,6.518116404619812
1667080654487709000,5.151708984375,0.8269535124778747,1.0065899486601353,6.597341917026043
1667080654507651000,5.171651123046875,0.6545856059938668,0.7236813540518283,6.54033349712491
1667080654527593200,5.19159326171875,-0.08266352403089404,0.9839484932631254,6.797604377129674
1667080654547535000,5.21153515625,-0.5500250151924788,1.021661261063814,6.452438356050848
1667080654567477200,5.231477294921875,-0.6274129369080066,0.41439504012763495,5.705524010449648
1667080654587420200,5.251420166015625,-0.32741277611479164,0.19499825596511364,5.3499932472229
1667080654607362000,5.271362060546875,-0.40575624498948454,0.3580570668339729,5.32032116253674
1667080654627304200,5.29130419921875,-0.9387361634872853,0.9075374537557362,5.345905101126432
1667080654647245800,5.311245849609375,-1.9051573294967412,0.9602128128886223,4.569634312659502
1667080654667188000,5.33118798828125,-2.2520224095784127,1.2837199598670006,3.807575297157466
1667080654687129900,5.3511298828125,-2.1776592425115404,0.7490355755388737,2.2089605358347297
1667080654707072000,5.371072021484375,-1.3777085955105721,-0.007009586501121521,0.1402091926138848
1667080654727014100,5.39101416015625,-0.7103333583094179,0.5512742846012115,-1.1821194609802215
1667080654746955800,5.410955810546875,-0.5648819541931152,0.731994424366951,-2.425563305364549
1667080654766898000,5.43089794921875,-1.042973952075094,1.7478449533253908,-2.194108419139683
1667080654786840000,5.450840087890625,-1.7863326510213315,2.7815251534849406,-2.5119065408214927
1667080654806782000,5.470781982421875,-1.456853005504608,1.564227338552475,-4.134111728829145
1667080654826725000,5.49072509765625,-0.6618921296149491,-0.5043658184319735,-6.7482152000606055
1667080654846667000,5.5106669921875,0.749331343615055,-1.6417957314014433,-8.18120451489687
1667080654866609200,5.530609130859375,0.17373977935910223,-0.310391060295701,-6.921073520410061
1667080654886550800,5.55055078125,-2.1155007463708517,0.2758230202615261,-6.151421273300051
1667080654906493000,5.570492919921875,-3.0865479647457597,-0.43201545249223705,-6.813864607056975
1667080654926435000,5.59043505859375,-1.4337094458043576,-1.0717501108348368,-7.339317637181281
1667080654946377000,5.610376953125,0.17929244505017994,-0.9459732751339673,-6.741061821174621
1667080654966319000,5.630319091796875,-1.6013859796017407,0.15439795002937315,-5.721361631050706
1667080654986261000,5.650260986328125,-3.244377935050428,-0.034625907701253886,-6.3733174730628726
1667080655006203000,5.670202880859375,-1.6516504782006143,-0.7792354834914207,-6.60723085835576
1667080655026145000,5.69014501953125,0.718583154129982,-0.7508031697332859,-5.028562321996689
1667080655046088000,5.710087890625,0.047098435783386225,-0.07731178773939609,-4.571635423348844
1667080655066030000,5.730030029296875,-1.0418716899216174,-0.06658055036664008,-4.319286802177131
1667080655085972000,5.749971923828125,-0.9023065673649311,-0.23263503592014312,-3.962669705018401
1667080655105913900,5.769913818359375,-1.2456129320517182,-0.13487374987006187,-4.172382715034485
1667080655125856000,5.78985595703125,-0.964436421933025,0.2419996611148119,-3.7007226498961447
1667080655145798000,5.8097978515625,-0.5974455225370824,0.6080617552280426,-2.62516379442811
1667080655165740000,5.829739990234375,-0.3871569045901298,1.5015245064020155,-0.3582663256704807
1667080655185682200,5.84968212890625,-1.4418611880779266,1.0339520028382538,-0.4235015989080071
1667080655205624000,5.8696240234375,-1.6797142509073018,-0.20883622718155384,-0.380230027936399
1667080655225566000,5.88956591796875,-1.5431623386919497,0.2760807944148779,0.26184476379156113
1667080655245507800,5.9095078125,-1.4528763569585978,0.7814081513553858,1.5434794418171047
1667080655265451000,5.929450927734375,-1.343092624681443,0.5496808779299259,2.456727674435079
1667080655285393000,5.949392822265625,-0.9063771778047084,0.35961890932321544,2.774078929132223
1667080655305335000,5.9693349609375,-0.4433130915760994,0.22290917619764802,2.940314324210584
1667080655325277200,5.989277099609375,0.03060037851221859,0.5308364767283201,3.675467504869401
1667080655345218800,6.00921875,0.11807225267291069,0.9275994140535593,4.559515654227138
1667080655365161000,6.029160888671875,-0.25627967701032756,1.4969091215610504,5.503190589290857
1667080655385103000,6.04910302734375,-0.6025238487146795,1.8018074296593665,6.482036790978908
1667080655405045000,6.069044921875,-0.5161044792816043,1.5041507632523774,7.121406707662343
1667080655424987100,6.088987060546875,-0.6531961974620819,1.4510159699141978,7.829218292409181
1667080655444928800,6.1089287109375,-0.5430266807377339,1.4285153842926024,8.107523192614316
1667080655464871000,6.128870849609375,-0.5641431185245513,0.9137550130963324,7.4672928597092625
1667080655484813800,6.148813720703125,-0.11941767593249678,0.6750275055199861,7.0559268120139835
1667080655504756000,6.168755859375,0.388726930385828,0.5999427461802959,7.075455103826522
1667080655524698000,6.188697998046875,0.2842944960087538,0.5912614270746708,6.992628936579823
1667080655544640000,6.208639892578125,0.01633621777296066,0.2700017667621374,6.465068120521306
1667080655564582100,6.22858203125,-0.5303355414688586,0.08669628667831421,5.282129671308398
1667080655584524000,6.24852392578125,-0.6426062682561576,-0.00891629690527916,4.502826383277774
1667080655604466000,6.2684658203125,-0.3385410499811172,-0.15297405470609665,3.7327804606750603
1667080655624408000,6.288407958984375,0.04612169970571994,0.11204466294646262,2.663674142347276
1667080655644350000,6.308349853515625,-0.21945625926479695,0.7062520803451537,2.00859256953001
1667080655664292000,6.3282919921875,-0.4155259438537061,1.7382763299912214,1.6457310250237582
1667080655684234200,6.348234130859375,0.028750293666124343,2.1906477572917935,0.3844596283301711
1667080655704176000,6.368176025390625,-1.0604583169698714,2.391677694636583,-0.8647969209209084
1667080655724119300,6.388119384765625,-1.8482447711855172,1.4910866990178822,-3.2166882563531396
1667080655744061200,6.408061279296875,-1.1974698095209897,0.1586222897261381,-5.028937585049867
1667080655764003000,6.428003173828125,-0.4401020205751061,0.5708323870301246,-5.382140197589993
1667080655783945000,6.447945068359375,-1.5486612283691763,0.7833487640291452,-5.3377784932941195
1667080655803887000,6.46788720703125,-2.583162097261846,-0.41924481824636456,-7.011535881623625
1667080655823829200,6.487829345703125,-1.9291914082959294,-1.2968676107317207,-7.9720695970296855
1667080655843771100,6.507771240234375,-1.1119748614564537,-0.9389899921178817,-7.217488662323356
1667080655863713000,6.527713134765625,-1.7849769986286759,-0.3609638941913843,-7.037541845017671
1667080655883655200,6.5476552734375,-2.6236951831802724,-0.5427519554495811,-7.667033926287293
1667080655903597000,6.56759716796875,-1.6849670568689703,-0.6492296319186687,-7.338353760585188
1667080655923539200,6.587539306640625,-0.6673653003290295,-0.9657470661401748,-7.2770584571450945
1667080655943481000,6.607481201171875,-0.3563844574466348,-1.1190718339800834,-7.152489243668318
1667080655963424300,6.62742431640625,-0.3970154507815838,-1.045115786409378,-6.193997263222933
1667080655983366000,6.647365966796875,-0.994978713582456,-0.6746610102951526,-5.347442978218197
1667080656003308000,6.66730810546875,-1.6995470786243676,-0.2725409298509359,-4.419481160593032
1667080656023250200,6.687250244140625,-1.8033277710944413,0.17371289135217666,-3.1110718728885054
1667080656043192000,6.707192138671875,-1.0838307169899344,0.2033954974323511,-2.8144869273662567
1667080656063134200,6.72713427734375,-0.31096447626948354,0.07713409308493137,-2.431178807158768
1667080656083076000,6.747076171875,-0.6593421528711915,0.7642927659034728,-1.9077604977324605
1667080656103018000,6.76701806640625,-1.7816507768154144,1.827196722459793,-0.7007339014455676
1667080656122960100,6.786960205078125,-1.8509294802248477,1.7140724475830793,0.7193278350174427
1667080656142902000,6.806902099609375,-0.9313312940582632,0.34967619197964667,0.4518012261971831
1667080656162844200,6.82684423828125,-0.23568244079202413,-0.8363900338649749,0.6233619079515338
1667080656182786300,6.846786376953125,-0.5380510842822491,-0.31716449995338913,0.9771861595213412
1667080656202729200,6.866729248046875,-1.1934152734331787,0.9420143083751201,2.8963828280255197
1667080656222671000,6.886671142578125,-0.935272432899475,1.4781798711717127,4.233660775078833
1667080656242613000,6.906613037109375,-0.6491875463426112,0.4974561851739883,3.8482621123328804
1667080656262555100,6.92655517578125,0.4206394874751568,-0.6349070920556783,4.021423799543083
1667080656282497300,6.946497314453125,0.9413198963701724,-0.11803542779386043,5.374022942107915
1667080656302439200,6.966439208984375,0.18731179311573504,0.8817828347742557,6.93532416408062
1667080656322381000,6.986381103515625,-0.960615110079199,1.5215993261814116,8.043259102496505
1667080656342323000,7.006322998046875,-1.230002252074331,1.1059294438123701,8.091268807905912
1667080656362265000,7.02626513671875,-1.0758838496387004,0.2985825490802526,7.927651778632402
1667080656382207200,7.046207275390625,-1.0943493345253168,0.4037777845233679,8.194988710099459
1667080656402149000,7.066149169921875,-0.9980265568457544,1.0061568179398774,8.527934716552496
1667080656422091000,7.086091064453125,-0.8342937922380864,1.3083207326382398,8.812364821639656
1667080656442034000,7.106033935546875,-0.4420608995579183,0.9241162481129169,8.320244736796617
1667080656461976000,7.12597607421875,-0.22915406193658708,0.695958649867773,7.105159921738505
1667080656481918200,7.145918212890625,-0.5408715485304594,0.47847442132830614,5.976005669683218
1667080656501860000,7.165860107421875,-0.597553512956202,0.7974480165302753,5.445504123997688
1667080656521802200,7.18580224609375,-1.2616375996574758,1.4459879126191137,4.623102283474803
1667080656541744000,7.205744140625,-1.5905582961171865,1.039733508849144,2.9150132942155
1667080656561686000,7.22568603515625,-1.1089360782824456,-0.08056874370872974,0.02748917855597101
1667080656581628200,7.245628173828125,-0.4092300585798919,-0.8326707210808992,-2.4877695861697195
1667080656601570000,7.265570068359375,-0.5917316749349236,1.4131477192908524,-1.786002542284131
1667080656621512000,7.285511962890625,-3.3685739313006398,3.7916415227055547,-1.355898476371169
1667080656641454000,7.3054541015625,-5.320127685791253,3.463061310246587,-2.760145680847764
1667080656661396000,7.32539599609375,-5.09034745478034,1.1543085670560598,-6.625585430213809
1667080656681339100,7.345339111328125,-2.8481144716799256,-1.7226783633649347,-10.188169775485992
1667080656701281000,7.365281005859375,-0.11152969916164875,-2.3160756334245205,-10.97561545343995
1667080656721223000,7.385222900390625,0.5687374605774879,-0.8404121289879083,-9.317238005071879
1667080656741164800,7.405164794921875,-1.5755363758131862,0.1638730498611927,-8.374106675365567
1667080656761107000,7.42510693359375,-2.0950430647537113,-0.4971037184745073,-8.468675887376069
1667080656781049000,7.445049072265625,-0.5020405903548002,-1.0603437506794928,-8.53188257739544
1667080656800991000,7.464990966796875,1.2605223318919538,-1.4953718289911746,-8.106347134572268
1667080656820933000,7.48493310546875,1.7439616821512578,-1.3275088327109812,-7.323406951344013
1667080656840875000,7.504875,0.2006222333267331,-0.427748442697525,-6.582293400976061
1667080656860817000,7.52481689453125,-1.2566142185375093,-0.27876959510743615,-6.28693507463932
1667080656880759000,7.544759033203125,-1.552460912913084,-0.5199754754960537,-6.1537365645051
1667080656900701000,7.564700927734375,-0.3383423125386238,-0.20850246518254278,-5.335895748287439
1667080656920643000,7.58464306640625,-0.05972264729589224,0.2990636105954647,-3.8884079524993895
1667080656940586000,7.6045859375,-0.8540914025112986,1.197992225959897,-2.9333102906674147
1667080656960528000,7.62452783203125,-1.7462915864035486,1.2855968596547842,-2.8367732857152816
1667080656980470000,7.644469970703125,-1.1466527916058897,0.610353081035614,-1.5939929467409848
1667080657000412000,7.664411865234375,-0.540116930770874,0.49889761615395545,-0.6764639680638909
1667080657020354000,7.68435400390625,-1.8620494246542452,1.2596949411571026,0.2554495097965002
1667080657040296200,7.704296142578125,-3.512129000276327,0.7067436632543802,0.13877302233092487
1667080657060237800,7.72423779296875,-2.4701415750205515,-0.39760055719316,0.4308572223678231
1667080657080180000,7.744179931640625,-1.8228097395472227,-0.5084200622588396,1.281054247789085
1667080657100121900,7.764121826171875,-2.4231208806484936,0.42993338552117344,2.4716113553121684
1667080657120064000,7.78406396484375,-2.6588334243178364,1.4341010754704475,3.5505279967755077
1667080657140006100,7.804006103515625,-1.8367595005750654,1.4052999283999204,4.597030853629112
1667080657159947800,7.82394775390625,-0.6049712418667972,1.0283721568793058,5.051221897572279
1667080657179891200,7.84389111328125,0.3495635253854096,0.6563865179359912,5.013233819961547
1667080657199832800,7.863832763671875,0.5607037917256354,0.7024538571059703,5.403275340077281
1667080657219775000,7.88377490234375,-0.027013094609975814,1.001219361537695,6.049769994074106
1667080657239717000,7.903717041015625,0.0343323315821588,1.5455822593152522,6.833855840206146
1667080657259659000,7.923658935546875,-0.1583117624722421,1.541841319221258,7.638290062361955
1667080657279601200,7.94360107421875,-0.4274140961766243,1.0460065977692603,7.891984252923726
1667080657299542800,7.963542724609375,-0.8092050898194313,0.5398807839274407,8.108435046762228
1667080657319485000,7.98348486328125,-0.31879122437238694,0.7730874822556972,8.387440204191208
1667080657339427000,8.003427001953124,-0.08429989306107163,1.549290466183424,8.590141289618611
1667080657359369000,8.023368896484374,-0.06038111120462417,1.9083213464856146,8.325121987444161
1667080657379311000,8.04331103515625,-0.4579343221247196,1.9156003975778817,7.786486235141754
1667080657399253000,8.0632529296875,0.08452741820663214,1.4905290651351213,6.950282079237699
1667080657419195000,8.08319482421875,0.37625440230369567,1.1086802038252352,5.914203001242876
1667080657439137000,8.103136962890625,0.3935632645010948,0.631276626598835,4.341337305943668
1667080657459079000,8.123078857421875,-0.17117650474235416,0.42440906914174553,2.730289179505408
1667080657479021000,8.14302099609375,-1.155894228812307,1.485923032644391,2.079701703236997
1667080657498963000,8.162962890625,-1.8467247220113872,2.2794857321739195,1.1168078345708548
1667080657518904800,8.18290478515625,-1.3309960903048514,2.056033535140753,-0.8155135423138737
1667080657538848000,8.202847900390625,-1.58351100795418,3.142284465014934,-0.683693480926007
1667080657558790000,8.222789794921875,-3.825220843963325,3.4918250479161737,-1.2442499731354415
1667080657578732000,8.24273193359375,-4.339823686510324,0.829203921753168,-5.259136918255686
1667080657598674200,8.262674072265625,-2.2233868283331395,-0.6915969475269317,-7.141818212050199
1667080657618615800,8.28261572265625,-0.6644231093972921,-1.5160802704989909,-7.9978166172266
1667080657638557700,8.3025576171875,-0.38982583153843875,-2.080576440244913,-9.101521370726823
1667080657658499800,8.322499755859376,-1.4984306320399046,-1.2845301072061062,-7.9166475695371625
1667080657678441700,8.342441650390626,-3.5733319492578506,-0.5790069256573915,-7.120360413479805
1667080657698384000,8.3623837890625,-4.032957877731323,-1.2314146030902862,-8.52333920545578
1667080657718325800,8.38232568359375,-2.3094287427559492,-1.7641081058621406,-8.997689824852348
1667080657738269000,8.40226904296875,-0.37158465692698955,-1.9643191280394792,-8.707662338149547
1667080657758210800,8.4222109375,0.18314356752038,-1.4579612590074538,-7.52826433802247
1667080657778152700,8.442152587890625,-0.5559548436328768,-0.9110369863092899,-6.783608000481128
1667080657798094800,8.4620947265625,-1.1255334312096237,-0.6055354516208171,-6.78222502169013
1667080657818036700,8.48203662109375,-0.8191817094326019,-0.6572025104939937,-6.120250474488735
1667080657837979000,8.501978759765626,-0.42960459195822476,-0.4591764311403036,-4.959713242176175
1667080657857920800,8.521920654296874,-1.2775266581848264,0.328770766595006,-3.6405206946507094
1667080657877862700,8.541862548828124,-2.022845551288128,0.5980009644627571,-3.7447272113174197
1667080657897804800,8.5618046875,-1.687281763552129,0.6646183397084474,-3.397665585750341
1667080657917746700,8.58174658203125,-1.2418798830032347,1.3497118966907262,-1.9704910946726797
1667080657937688800,8.601688720703125,-1.2475348400250077,1.9354215348571537,-0.6403788014650345
1667080657957631000,8.621630859375,-1.1570467598482965,2.013108001127839,0.14196484064217657
1667080657977574000,8.641573974609376,-0.719107178004086,1.744681520858407,0.8782447237759828
1667080657997515800,8.661515869140626,-0.3004237930327654,1.635617335027456,0.9473138760879636
1667080658017457700,8.681457763671874,-0.3909785087049007,0.8302601528078317,1.688740730188787
1667080658037399800,8.70139990234375,-0.7696493245005607,0.9339537515163421,3.15680223518908
1667080658057341700,8.721341796875,-1.050183006671071,0.7115384963154793,4.0576010283395645
1667080658077283800,8.741283935546875,-1.823832214462757,0.350097047740221,4.379265470060706
1667080658097225700,8.761225830078125,-1.9507582201987503,-0.015747019708156586,4.633587144871056
1667080658117167600,8.781167724609375,-1.377588330131769,-0.16339315738976,5.149336234843731
1667080658137109800,8.80110986328125,-0.570373975738138,0.13731471328139305,6.217344236540794
1667080658157052000,8.821052001953126,-0.4049817534856498,0.5583329709410667,7.211450551202893
1667080658176993800,8.840993896484376,-0.4227307606659829,0.7887672819465398,8.247104097262024
1667080658196936000,8.86093603515625,-0.20236440081894397,1.0419921014308928,8.783043450087309
1667080658216877800,8.8808779296875,0.04546294353604317,1.1823942593336105,8.898432747286558
1667080658236820700,8.90082080078125,0.33910599038749933,0.9432949958354234,8.078248582813144
1667080658256762600,8.9207626953125,0.7336512516632676,-0.07663315782546996,7.181021510669589
1667080658276704800,8.940704833984375,0.5130258024886251,0.03824117558896541,6.818101806235313
1667080658296647000,8.96064697265625,-0.10538462053537369,0.613711743813753,6.829796335682272
1667080658316588800,8.9805888671875,-0.6045299278400837,1.2354051340311765,6.615029549407959
1667080658336530700,9.00053076171875,-0.71425520792827,1.2325854004353285,6.091760293063521
1667080658356472800,9.020472900390626,-0.4821802901089191,0.9970616573363542,5.378077770456671
1667080658376414700,9.040414794921874,-0.15514584578722715,0.39974399896264073,4.014820163494348
1667080658396356900,9.06035693359375,-0.26984891428798435,0.27057576725780963,2.0975527094870805
1667080658416298800,9.080298828125,-0.29578064340203997,1.3259773853600025,1.2386197121635079
1667080658436240600,9.10024072265625,-0.19086480942219494,2.9397002839654682,0.2304378364031203
1667080658456182800,9.120182861328125,-0.8761866222023963,2.8742589667618272,-1.2246966930121184
1667080658476124700,9.140124755859375,-0.9019017859563231,1.2028268065094947,-3.3339170439392327
1667080658496067800,9.16006787109375,-0.2546083827972412,0.33348259754776954,-4.961080438876151
1667080658516009700,9.180009765625,-1.2302183790430425,2.3121903164237736,-4.004690106885135
1667080658535952000,9.199951904296874,-2.7514047405093907,3.589310439634323,-2.788941274960339
1667080658555894000,9.21989404296875,-2.7928087640434502,1.5405775828957557,-5.590977593815326
1667080658575835600,9.239835693359375,-1.423648655039072,-1.637092668277025,-8.517098849761485
1667080658595777800,9.25977783203125,-1.0357631439134478,-2.501986327570677,-9.127245010048151
1667080658615720000,9.279719970703125,-2.535127257411182,-2.1537942366689444,-8.088519801458716
1667080658635662000,9.299662109375,-3.445551957041025,-1.9295523505628107,-8.358945931112766
1667080658655604000,9.31960400390625,-3.1831472212791443,-1.7471148854851721,-8.438897419705986
1667080658675545900,9.3395458984375,-3.1635563856244087,-1.6795681204348802,-8.399291970026493
1667080658695488000,9.359488037109376,-2.1301626011908055,-1.8664450292646884,-8.330435291421413
1667080658715430100,9.37943017578125,-0.5925532204508781,-2.00905843347609,-7.527546545141935
1667080658735372000,9.3993720703125,0.0891366655677557,-1.3931693456232548,-6.515970624762773
1667080658755314000,9.41931396484375,-0.14229133265018462,-0.7266402038574218,-6.237628315156698
1667080658775255800,9.439255859375,-0.6197755738973617,0.1046516300857067,-5.043326760408282
1667080658795199000,9.459198974609375,0.384970792722702,0.5610521667718887,-3.669326810157299
1667080658815140900,9.479140869140625,0.28558804295063017,1.319387485575676,-2.8218671007454392
1667080658835083000,9.4990830078125,-0.2687117269515991,2.20318692086935,-2.5179724167317152
1667080658855025200,9.519025146484376,-0.7696203906670213,2.2434318374961615,-1.707817478841543
1667080658874967000,9.538967041015624,-0.5959370176702737,2.26685830579102,-0.5277358803644776
1667080658894909000,9.558908935546874,-0.5780822120279073,2.146739641982317,-0.07479863587468862
1667080658914851000,9.57885107421875,-0.6593570581793785,1.6555086149334906,0.3070572396978736
1667080658934793000,9.59879296875,-1.108518583522737,1.4272668455362318,0.4712970770448446
1667080658954735000,9.618735107421875,-1.2440472901701927,0.7416179927587508,0.764952691116929
1667080658974677000,9.638677001953125,-0.7024407053634524,0.13737374999225138,1.6477005715310573
1667080658994619000,9.658618896484375,-0.8639148773893713,0.41353754651546476,2.4613497812777756
1667080659014561000,9.67856103515625,-1.5477286236941814,1.0276900198340415,3.2845918720170855
1667080659034503000,9.6985029296875,-1.7746759693667291,1.1459744539529084,3.6872523429483173
1667080659054445000,9.718445068359374,-1.1428051762670277,0.5478028090983629,4.160808889357745
1667080659074388000,9.738387939453125,-0.769113610188663,0.10185995354056358,4.6253339880496265
1667080659094330000,9.758330078125,-0.8707903161168098,0.20234043542146682,5.870379057085514
1667080659114272000,9.77827197265625,-0.6627566374897956,0.41748540735840795,7.258160279929638
1667080659134214000,9.7982138671875,-0.9111831167817115,0.6307564021170139,7.996631206834316
1667080659154156000,9.818156005859375,-1.256441492319107,0.7050532259494066,8.408429800727962
1667080659174098000,9.838097900390625,-1.4628255040429532,0.6889642609357833,8.338300033447146
1667080659194040000,9.8580400390625,-1.2586854718536138,0.2503741062283516,7.578623236906528
1667080659213982200,9.877982177734374,-0.7341004567354917,-0.06785071643292903,6.916134310442209
1667080659233923800,9.897923828125,-0.39584932961165903,0.07335632811188697,6.733336779880523
1667080659253866000,9.917865966796874,-0.23797405886054038,0.7163315758109092,6.726952631801367
1667080659273808100,9.93780810546875,-0.4031891709804535,0.9485036703944205,6.390671343445778
1667080659293750000,9.95775,-1.1668658508121967,0.8845663280129432,5.219801517689228
1667080659313692200,9.977692138671875,-1.4071306509584187,0.33582068510651586,4.154633123332262
1667080659333633800,9.9976337890625,-1.0736439617574214,-0.4675672428667545,2.4439777907162905
1667080659353576000,10.017575927734375,-0.5558394005596637,-0.4752805937230587,1.4515171974346042
1667080659373518800,10.037518798828126,0.09443594101965427,0.13939151955544948,0.1438014723516535
1667080659393461000,10.0574609375,0.1337304250538349,0.641110622870922,-0.353994931961596
1667080659413403100,10.077403076171874,-1.2572411182641983,2.3210025684326885,-0.3663800740212202
1667080659433345000,10.097344970703125,-2.413890695488453,3.1753724956244227,-0.8982479396238923
1667080659453287000,10.117286865234375,-2.437866614359617,2.0815479156255723,-2.9201211387485264
1667080659473229000,10.13722900390625,-0.7198679332435131,0.39828386328220367,-4.545867652624845
1667080659493171000,10.1571708984375,0.2161295990601182,0.45129181537032126,-4.6159749158129095
1667080659513113000,10.177113037109375,-1.4722159943312405,0.7347451843798161,-4.640094919329881
1667080659533055000,10.197054931640626,-1.6078510839626192,-0.676558952870965,-6.9200091060489415
1667080659552996900,10.216996826171876,-0.5955073940813541,-1.936905635935068,-8.333570666837693
1667080659572939000,10.23693896484375,-0.07776829933524132,-1.6746739186525343,-7.403174315541982
1667080659592881000,10.256880859375,-1.5947463954567909,-1.049030329504609,-6.9078937208414075
1667080659612823000,10.276822998046875,-2.62565800768584,-0.859771493974328,-7.160195580261945
1667080659632765000,10.296764892578125,-2.161441244290769,-1.3578589627891777,-8.006086432921887
1667080659652706800,10.316706787109375,-0.971380980373919,-1.6752058335721491,-8.033188374859094
1667080659672650000,10.33664990234375,0.20218904425203799,-1.7255051112234592,-7.2533344672083855
1667080659692591900,10.356591796875,0.06771130796223879,-1.1412655456095933,-6.154570677241683
1667080659712534000,10.376533935546876,-0.1515688640832901,-0.8597849379777908,-5.0678772642970085
1667080659732475600,10.3964755859375,-0.651793344926834,-0.46925183495283124,-4.542848597064614
1667080659752417800,10.416417724609374,-0.9612573535054921,-0.34441783306002616,-4.724072302438318
1667080659772360000,10.43635986328125,-0.9505518350958824,-0.21389058796167373,-4.522366365528106
1667080659792301800,10.4563017578125,-0.786284817481041,0.18891046048402785,-3.1783105949029324
1667080659812244000,10.476243896484375,-0.690563220565021,1.096041671526432,-1.381963476476073
1667080659832185900,10.496185791015625,-0.43017888471484184,1.4490543144524097,-0.07970832748711108
1667080659852127700,10.516127685546875,-0.8137947556972503,1.8164309982955456,-0.14775485875308514
1667080659872070000,10.53606982421875,-1.9912986126407979,1.404317931625247,-0.31530546461585907
1667080659892011800,10.55601171875,-2.0017219531081616,1.6377946790665387,0.6098977019509301
1667080659911954000,10.575953857421876,-0.8490981242686509,1.2314783159762621,1.5682438807174564
1667080659931896000,10.59589599609375,-1.005877270346135,1.2867226488143204,1.953446144108474
1667080659951837700,10.615837646484374,-1.7969795711115002,1.4316080896109342,3.271289907373488
1667080659971779800,10.63577978515625,-1.4818436543762683,0.9933850146502256,3.845508137449622
1667080659991722800,10.65572265625,-0.4573457085818052,0.31642683332860466,4.306040367113053
1667080660011665000,10.675664794921875,-0.18394202442169189,0.25047932016849517,4.830748424088955
1667080660031607000,10.69560693359375,-0.3645931906044483,0.40236148798465726,5.791770215272903
1667080660051549000,10.715548828125,-0.12170856334865092,0.6090192020833491,7.1545128584504125
1667080660071490800,10.73549072265625,0.5773487831868231,0.6323597456604242,8.29627524766624
1667080660091432700,10.7554326171875,0.44292073125764725,0.6034978083133697,8.469227676039933
1667080660111374800,10.775374755859374,-0.2594062845982611,0.9929051221787929,8.67831992380917
1667080660131317000,10.79531689453125,-1.1074597221195697,1.5536755493998526,8.418818508273363
1667080660151259000,10.8152587890625,-0.8285100942701101,1.318703010442853,7.733919012558459
1667080660171200800,10.83520068359375,-0.23664617125764487,0.821356130862236,6.633529667216539
1667080660191143000,10.855142822265625,0.06784793995395302,0.2548135499805212,5.586673759141564
1667080660211084800,10.875084716796875,0.18137699623927472,0.3756336400568485,4.920115975803137
1667080660231027000,10.89502685546875,-0.3518915299415588,0.8844038309276103,4.62391856829375
1667080660250968800,10.91496875,-0.9644938512086868,1.9348305832266806,4.9816205380797385
1667080660270911000,10.934910888671874,-1.446841606839001,1.6311258688271044,4.183818885806202
1667080660290852900,10.954852783203124,-0.9234766350351273,0.5442302113085985,2.341344806976616
1667080660310795800,10.974795654296875,-0.3059117229245603,-0.7508715587943792,-0.057447176644578574
1667080660330738000,10.994738037109375,0.06897358298301696,-0.15831892286539076,-1.162033316089213
1667080660350679800,11.0146796875,-1.5855805077046154,2.244438968712091,-0.10959785431623459
1667080660370622000,11.0346220703125,-2.0234002625614402,2.153873147124052,-0.3428878470137715
1667080660390563800,11.054563720703126,-1.8357704895377158,0.6301017376005649,-2.841446245962381
1667080660410505700,11.074505615234376,-0.9875395034924149,0.023848493099212643,-4.520839594352245
1667080660430447900,11.09444775390625,0.054207098744809626,-0.8163233973920345,-5.276055319830775
1667080660450389800,11.1143896484375,-0.09159896402806043,0.012502338698506355,-4.947194536864758
1667080660470332000,11.134331787109375,-1.715156443427503,0.537144052439928,-5.056899943208694
1667080660490274000,11.154274169921875,-2.702119316075742,-0.3154997816115618,-6.893608590379357
1667080660510215700,11.174215576171875,-2.131010157930851,-1.516083777630329,-8.343869942533969
1667080660530157800,11.19415771484375,-0.003586334054172039,-1.5615549044728279,-7.797737112474441
1667080660550100000,11.214099853515625,-0.24450667549967764,-0.6272919408768415,-7.066908224755525
1667080660570041900,11.234041748046875,-1.6497566272780297,0.06615151129961014,-6.751943280673027
1667080660589984000,11.25398388671875,-1.2740008221462369,-0.3307347601443529,-6.837477537834644
1667080660609925600,11.273925537109376,0.16302607764303684,-0.8734136503577232,-6.627222676026821
1667080660629868300,11.293868408203124,0.9564894084513187,-1.0212941813170908,-6.316978330725431
1667080660649810400,11.313810546875,0.17649375424236058,-0.6319523339033126,-5.956836274310946
1667080660669753300,11.33375341796875,-1.2033327102050184,-0.08555588447153568,-5.122545258551836
1667080660689695200,11.3536953125,-1.402702897644043,0.5180553210884332,-3.616128596194088
1667080660709637400,11.373637451171875,-0.9192717306911945,0.7984820357531308,-3.216564629973471
1667080660729579500,11.39357958984375,-1.4434890815407038,0.6919558439671993,-3.791861595197022
1667080660749521200,11.413521240234376,-1.5265736074626446,-0.031387656432390214,-3.4679981821268795
1667080660769463300,11.43346337890625,-0.3216320007562637,0.0843482622474432,-2.2553744964852926
1667080660789405400,11.453405517578124,-0.10124620555639266,0.477070399749279,-0.6272340732097625
1667080660809347300,11.473347412109375,-1.3815505117610096,1.3749562280625105,1.0699603048086166
1667080660829289500,11.49328955078125,-2.575095987445116,1.648160005736351,0.8766334891870617
1667080660849231400,11.5132314453125,-2.5239257721781727,0.016195932519435883,0.32571605519950386
1667080660869173200,11.53317333984375,-1.4208936572425066,-0.12650573449730873,0.9107353730142116
1667080660889115400,11.553115478515625,-0.8102496304363012,0.3108803051173687,2.016146638171375
1667080660909057300,11.573057373046876,-0.99206194935292,0.6663450173705816,3.2688279011741277
1667080660928999400,11.59299951171875,-1.8134639651834963,0.7012099945247173,3.4643864213705062
1667080660948941600,11.612941650390624,-1.1046794437512755,0.27213585618138314,4.119586067609489
1667080660968883200,11.63288330078125,0.021499884146451948,0.2926356233745813,4.616479650464654
1667080660988825300,11.652825439453125,0.35618776583075523,0.5093202259689569,5.561207893973589
1667080661008767500,11.672767578125,0.14593582663238047,0.6168915428936481,6.315657895776629
1667080661028710400,11.69271044921875,-0.5137555780678987,0.2611000829041004,6.401033747506141
1667080661048652300,11.71265234375,-1.60850706365332,-0.6259545547932386,6.460149368819594
1667080661068594400,11.732594482421876,-0.445244059638679,-0.6830781255066395,6.252187001863121
1667080661088536300,11.752536376953126,-0.33496728314757346,-0.8353729657769202,6.257853941583633
1667080661108478200,11.772478271484376,-0.29979426295757294,-0.4965010764062404,6.57366059718728
1667080661128420400,11.79242041015625,-0.5743867185108363,0.1280880352526903,6.996515422624349
1667080661148362500,11.812362548828125,-0.6738477942161262,0.9836538942307234,7.280886491000652
1667080661168304400,11.832304443359375,-1.1357282236181199,1.4345266074061394,7.360306649196147
1667080661188246300,11.852246337890625,-0.7720438184216618,1.216705694258213,6.612083559083938
1667080661208188400,11.8721884765625,-0.6713897335395217,1.0919576170831917,6.052215049138665
1667080661228130300,11.89213037109375,-1.3232955989301205,1.6094447828948497,5.827661028343439
1667080661248072400,11.912072509765625,-2.028881178190559,1.8426123182564973,4.958882052049041
1667080661268014300,11.932014404296876,-1.8486136044979093,1.550487567013502,3.0930978247806427
1667080661287956500,11.95195654296875,-1.408226629501581,0.20691724181771276,0.33720278711467977
1667080661307898400,11.9718984375,-0.5946434707283973,-0.3720189566910267,-2.173928677681088
1667080661327840300,11.99184033203125,-1.0673790561437606,0.20542788004279136,-3.0545623424202204
1667080661347782400,12.011782470703125,-1.7718235025450586,1.1643483150333165,-3.0378999614328146
1667080661367724500,12.031724609375,-1.5055787502288818,0.9275877236157655,-3.2203079081550237
1667080661387666400,12.05166650390625,-0.32874212502241135,0.7418786895215511,-3.9809430283337828
1667080661407608300,12.0716083984375,0.1101744851604104,-0.024492051699757576,-4.935681209203601
1667080661427550200,12.09155029296875,-0.07395633983165026,-1.2085603817254305,-6.687690296471119
1667080661447492400,12.111492431640626,-0.7675918074488639,-1.0689081654071808,-7.185847323390841
1667080661467434500,12.1314345703125,-1.7910110180959105,0.09298924934267998,-6.558199408683181
1667080661487376400,12.15137646484375,-2.653295956195891,0.5256459223479032,-6.302358269220591
1667080661507318300,12.171318359375,-2.4716835437655447,0.10737316400408745,-7.741840453207493
1667080661527260400,12.191260498046875,-1.0292834265053272,-0.387289006537199,-8.21486596148014
1667080661547203300,12.211203369140625,-0.20291998887509105,0.029294483545422554,-7.760744475641846
1667080661567145500,12.2311455078125,-0.15197189192622898,0.25642332326471806,-7.1097864124953745
1667080661587087400,12.25108740234375,0.08211071245372295,0.09809621709287165,-6.624228754907846
1667080661607029500,12.271029541015626,-0.3747308459982276,-0.10325403824746608,-6.638831280755996
1667080661626971600,12.2909716796875,-0.7768623246192932,-0.23982816229462622,-6.862077141562104
1667080661646913800,12.310913818359374,-0.6033727206289767,0.06856558670401573,-6.373128672492504
1667080661666856000,12.33085595703125,-0.19064181432127952,0.43115854340195653,-4.695060727487504
1667080661686797800,12.3507978515625,0.31668110035061836,0.8357868072748184,-3.2293592296168208
1667080661706739700,12.37073974609375,-1.3118272794544696,1.329236094895005,-2.656465818403661
1667080661726681600,12.390681640625,-2.706101663710177,1.6380407627820968,-1.8200316531360148
1667080661746623700,12.410623779296875,-2.604698806287348,1.43825527254045,-0.7871343469824641
1667080661766566000,12.43056591796875,-0.9500690200150013,0.577398321416974,0.7851952686786651
1667080661786508800,12.4505087890625,-0.021070845079421995,0.8610510123908519,2.217024307563901
1667080661806451000,12.470450927734374,-1.2562053454756736,0.954758054614067,2.7133719469740987
1667080661826392600,12.490392578125,-2.90735810328722,0.4110340392619371,2.919381134036183
1667080661846334700,12.510334716796875,-2.961794919134676,-0.3455857077956199,3.520415767106414
1667080661866276900,12.53027685546875,-2.4106933607518672,-0.8449766604244708,3.81967256218642
1667080661886218800,12.55021875,-2.0147949313014744,-0.9734376206427812,4.661250520083308
1667080661906161000,12.570160888671875,-1.4447234456412494,-0.6374474241882562,5.939376020944118
1667080661926102500,12.5901025390625,-1.0063374352037906,-0.47002574193477625,6.5690124791204925
1667080661946044700,12.610044677734376,-0.5616985018514097,-0.49630116991996764,7.541942734763026
1667080661965986800,12.62998681640625,-0.5215162751972675,-0.40608606146574017,8.590927471560239
1667080661985928700,12.6499287109375,-0.81552055657655,-0.18850071063935755,9.221113964834808
1667080662005870800,12.669870849609374,-0.7521434784263372,0.019203882163763047,9.40099122403562
1667080662025812700,12.689812744140625,-0.3924199396848678,-0.11023790578544139,8.936689704966545
1667080662045754600,12.709754638671875,-0.018533727817237375,-0.4952870244413614,8.122730698618293
1667080662065696800,12.72969677734375,0.0009109773650765418,-0.4841150575637817,7.259006083104014
1667080662085638700,12.749638671875,-0.2156032370984554,-0.37087796996235844,6.555490149724483
1667080662105580800,12.769580810546875,-0.01547580155134201,0.03269055572450161,6.064491762387752
1667080662125523000,12.78952294921875,-0.005556465083360672,0.31817513830065725,6.172848092210293
1667080662145464600,12.809464599609376,-0.43796749276444313,1.0893810445934533,5.402669190877676
1667080662165407700,12.82940771484375,-0.7154033550500869,0.9055483257651329,2.63821909083426
1667080662185349600,12.849349609375,-0.6921817616775632,0.2958259438484907,-0.613447612984851
1667080662205291800,12.869291748046875,0.28700901566445824,-0.016832476857304574,-2.992799421468377
1667080662225234000,12.88923388671875,0.7832675154864788,1.0084738627105951,-3.629146775460243
1667080662245175800,12.90917578125,-0.27546763095259663,2.4329461090922355,-3.729184189748764
1667080662265117700,12.92911767578125,-1.4229329079851507,3.2429894033014772,-4.188898965549469
1667080662285059600,12.9490595703125,-1.256049862653017,1.518517726778984,-6.325226519110799
1667080662305001700,12.969001708984376,-1.278427990938723,-0.47484629395902156,-8.503875795572995
1667080662324944000,12.98894384765625,-2.005278330415487,-1.9915373898327349,-9.12926161056757
1667080662344885800,13.0088857421875,-2.7283815923184154,-1.3422434605062008,-9.47077963053286
1667080662364827600,13.02882763671875,-2.9536463917315006,-1.401661864158511,-9.118670073926449
1667080662384769800,13.048769775390625,-2.8656270397558807,-1.1586457194775341,-8.678744286701082
1667080662404711700,13.068711669921875,-2.9032521292731164,-0.7660936778455972,-7.171760345849394
1667080662424653800,13.08865380859375,-3.0556285103470087,-0.6908265476763248,-5.684682297950983
1667080662444595700,13.108595703125,-2.9237036734104156,-0.7740718171179294,-6.0413178075492375
1667080662464537900,13.128537841796875,-2.2880945705652236,-0.5899345623850822,-5.981874853977561
1667080662484479700,13.148479736328126,-1.144242515593767,-0.7755974192500114,-5.775849592563509
1667080662504421600,13.168421630859376,-0.5773755250632763,-0.1276221713066101,-5.111538126847147
1667080662524363800,13.18836376953125,-0.6132341894298792,0.24353403107523916,-3.7912384948626157
1667080662544306000,13.208305908203124,-0.25906740803271533,0.19679566077589988,-2.4300825363546608
1667080662564247800,13.228247802734375,-0.5666682530879974,0.3424772203862667,-1.4662082783490418
1667080662584190700,13.248190673828125,-0.9486381104290484,0.9061918843656778,-0.7214867666170001
1667080662604132600,13.268132568359375,-1.3696870554879308,1.3021627945303915,0.1065715287650004
1667080662624074500,13.288074462890625,-1.2010820086687803,0.9917904389351606,0.37302959503829475
1667080662644016400,13.308016357421875,-1.6774620880663393,0.9477145658433437,0.20513620361983775
1667080662663958500,13.32795849609375,-2.414833529296517,0.5545984605878591,0.4503656404361129
1667080662683900700,13.347900634765624,-2.6364310383737086,0.5781295583009719,0.9971189404815435
1667080662703842600,13.367842529296874,-2.503819388216734,0.53231005641222,1.9030553887814283
1667080662723784400,13.387784423828125,-1.9026887474261223,0.2882353425890207,2.8246698832064867
1667080662743726600,13.4077265625,-1.2816753022968768,-0.011116437298059462,3.6687124776512383
1667080662763668500,13.42766845703125,-0.8933717118896544,0.42230888199210165,4.408787624882161
1667080662783610600,13.447610595703125,-0.4747765897236764,0.970284125047922,5.264826069808006
1667080662803552500,13.467552490234375,0.16284546037912367,1.2473796494632958,6.303512115430832
1667080662823494400,13.487494384765625,0.6963732220180332,0.8068412832975387,6.869997413167357
1667080662843436500,13.5074365234375,1.3466969327837228,-0.1054097549766302,7.146395602968335
1667080662863378400,13.52737841796875,0.737375679013878,-0.9068664226263761,7.489996274426579
1667080662883320600,13.547320556640624,-0.5441394642852246,-0.7209808629214763,7.423207634267211
1667080662903262700,13.5672626953125,-1.369397424891591,-0.3520779924243688,7.127572244554758
1667080662923204400,13.587204345703125,-2.1405853571362794,0.3583060731589794,7.225711716267466
1667080662943146500,13.607146484375,-2.4264392114162443,1.1600807207167148,7.756787846970558
1667080662963088600,13.627088623046875,-1.8110102884210646,1.5445704519242047,7.848605714446306
1667080662983030500,13.647030517578125,-1.0093429006300867,1.2228577871471642,7.423220493748784
1667080663002972700,13.66697265625,-0.8925437366329133,1.1781681660711765,6.447360614395142
1667080663022915600,13.68691552734375,-1.1202771181166171,1.1474135468453168,5.455811583000421
1667080663042857700,13.706857666015624,-1.8494797198079524,2.0219623387128114,5.106726342651248
1667080663062799400,13.72679931640625,-2.2586321831069887,2.372531680139899,3.8478102769121527
1667080663082741500,13.746741455078125,-1.7009499311596155,1.9058575867205858,1.6180314094543455
1667080663102683600,13.76668359375,-0.47050154275298117,1.2472931402236223,-0.7215723990738392
1667080663122625500,13.78662548828125,0.5896972464978695,1.3700889142870902,-1.769280540063977
1667080663142567700,13.806567626953125,0.3428317329123616,1.9976088187009096,-2.2601363040596247
1667080663162509600,13.826509521484375,0.24835195275098085,2.328967263701558,-3.6947307160049676
1667080663182451500,13.846451416015626,-0.6218196469455957,2.7925468982368704,-4.597474505743384
1667080663202393600,13.8663935546875,-0.7197451836466788,1.2927671896755695,-6.163766960132122
1667080663222335500,13.88633544921875,-0.8273638468444346,-1.7291098577171564,-8.913022413653135
1667080663242277600,13.906277587890624,-0.5596481451928615,-2.5812813980817793,-10.044451040381192
1667080663262219500,13.926219482421875,-1.7470245768532155,-2.077752030473947,-9.168868229290842
1667080663282161400,13.946161376953125,-2.7616122462689874,-1.6822013915479181,-9.108570704716444
1667080663302103600,13.966103515625,-2.465847677218914,-1.9764637393414972,-8.975479162088035
1667080663322045400,13.98604541015625,-2.7081305391892787,-1.5406956563174723,-8.051016877016425
1667080663341987600,14.005987548828125,-3.6804897169455884,-0.4895891050606966,-7.249935472419858
1667080663361929500,14.025929443359376,-2.029800192731619,-0.5878583406329154,-7.029052249091864
1667080663381871400,14.045871337890626,-0.11196399892568587,-1.1452011314928532,-6.695090343594551
1667080663401813500,14.0658134765625,0.16575374904125928,-1.2652677728533743,-6.166762634816766
1667080663421755600,14.085755615234374,-0.17387626522034405,-0.8677204071521758,-5.765639164194464
1667080663441697500,14.105697509765625,-0.570852260774374,0.10338555567264557,-4.830553778299689
1667080663461639700,14.1256396484375,-0.9136053754925727,0.8778642000257968,-4.269938833901286
1667080663481582600,14.14558251953125,-1.2489838697895408,0.703823391893506,-3.525310845671594
1667080663501524500,14.1655244140625,-1.1696548970088363,0.837576028779149,-3.1154318216636776
1667080663521466400,14.18546630859375,-1.57735657697767,1.5504191779524088,-2.3417504651680585
1667080663541408500,14.205408447265626,-1.6831448098778723,2.457708794426918,-1.156044597068429
1667080663561350700,14.2253505859375,-1.5378839598976075,2.7485259702026843,0.568476179292798
1667080663581292500,14.24529248046875,-0.7006482689887285,2.2919477388620377,1.4079969123989342
1667080663601234400,14.265234375,-0.5426046559333801,1.7542577429771422,1.5586717502519487
1667080663621176800,14.2851767578125,-0.9717335932038724,1.3236270228415727,1.5217001562073826
1667080663641118700,14.30511865234375,-0.9402607427060603,0.9921464127659797,2.0790034918397664
1667080663661060900,14.325060791015625,-0.9173911776416003,1.0134393761634826,2.7103920543804763
1667080663681002800,14.345002685546875,-1.3052594453714788,0.8937415681153535,3.258505244602263
1667080663700944600,14.364944580078125,-1.7466646574996412,1.0101192918300628,3.7696030016377566
1667080663720886800,14.38488671875,-1.9529284038446844,0.8507394617348909,4.594930666479468
1667080663740828700,14.40482861328125,-1.517710940440744,0.6421142469555139,5.207202148357033
1667080663760770800,14.424770751953124,-0.9254115486204624,0.4010404685139656,5.61305264750123
1667080663780713000,14.444712890625,-0.6631919601671398,0.05945815114080905,6.138167823973298
1667080663800654600,14.464654541015625,-0.8592273040950298,-0.2266717436015606,6.917507936882973
1667080663820596700,14.4845966796875,-1.1166215182185173,-0.4029220444768667,7.510373292022943
1667080663840538600,14.50453857421875,-0.724142541822791,-0.31314357387423514,7.802402766197919
1667080663860480800,14.524480712890625,-0.6060673665404319,-0.40478666930496693,7.3709952164709565
1667080663880423000,14.5444228515625,-0.4000697237856686,-0.6099661275446414,6.844817379203438
1667080663900364500,14.564364501953126,-0.05535889912843704,-0.511582325682044,6.843222218966484
1667080663920306700,14.584306640625,-0.3235276052445173,-0.06305354528427123,6.928875718593597
1667080663940248800,14.604248779296874,-0.3374889105796814,0.30642157214283944,7.115078673684597
1667080663960190700,14.624190673828124,-0.20232932950556276,0.9643991586625575,7.043060900700092
1667080663980132900,14.6441328125,-1.379777949130535,0.6144248605191708,5.8416498062074185
1667080664000074800,14.66407470703125,-3.686033614808321,0.7409417009323835,4.074012064914405
1667080664020017700,14.684017578125,-4.635477780923247,0.6061451079517602,2.1357029919221997
1667080664039959600,14.70395947265625,-3.203677383610606,0.23899931025505064,0.8431452802788466
1667080664059901700,14.723901611328126,-0.1749696134150028,-0.07703413984179497,0.0549967878177762
1667080664079843800,14.74384375,0.6529895689740777,0.20266016889512536,-0.5816118109261617
1667080664099785700,14.76378564453125,-1.1766272202394903,2.2459254078775643,-0.15565613339692352
1667080664119727900,14.783727783203124,-2.161060428279638,4.35273811314106,0.4363216252535581
1667080664139669800,14.803669677734375,-2.562230660653114,2.7817630538940428,-1.9434204246565698
1667080664159611600,14.823611572265625,-2.8168326137095687,-0.5875824463009834,-6.604628566902876
1667080664179553800,14.8435537109375,-1.241799218982458,-1.510100611567497,-8.581716575622558
1667080664199495700,14.86349560546875,0.7332496851250528,-0.6314706878662109,-8.107723099100589
1667080664219437800,14.883437744140625,-0.6274526843965054,1.0370604902476073,-6.6341124355405565
1667080664239379700,14.903379638671876,-3.21480375778079,0.7834761898010969,-8.030978882116079
1667080664259321600,14.923321533203126,-3.832151227748394,-0.30473873362243176,-10.259694211995601
1667080664279263700,14.943263671875,-1.6412383897796272,-0.9532090716063976,-10.375452927029132
1667080664299206000,14.963205810546874,0.654402650642395,-1.1412813277006149,-9.315447614523768
1667080664319147800,14.983147705078125,0.8083423355102538,-0.9895400296598672,-8.442616147968172
1667080664339089700,15.003089599609375,-0.3293956204950809,-1.1142594652622937,-8.325880696856975
1667080664359031600,15.023031494140625,-0.9184186209931969,-1.207876491114497,-8.146930489373206
1667080664378973700,15.0429736328125,-0.7688286557674407,-0.436679937171936,-7.294325818288326
1667080664398915800,15.062915771484375,-1.0923170980453492,0.36968671435117717,-5.896121401107311
1667080664418857700,15.082857666015625,-1.1115689110040663,0.9344944342643022,-4.601578726191819
1667080664438800000,15.1027998046875,-1.0924562142550944,0.35466391726434227,-4.537644306419789
1667080664458741800,15.12274169921875,-0.9832757085680961,0.17220190226733684,-3.7600226878657934
1667080664478683600,15.14268359375,-0.8356124736212194,1.080467085775733,-2.0355647476077077
1667080664498625800,15.162625732421875,-0.6815674286827444,1.642029540157318,-0.09185935026360675
1667080664518567700,15.182567626953125,-0.3386035938233137,1.0500549963772297,1.3603820515260099
1667080664538509800,15.202509765625,-1.1735777695409952,1.06478787060678,1.9150044775113462
1667080664558451700,15.22245166015625,-1.8855986425459383,0.9035761489093304,2.1609292031154035
1667080664578394600,15.24239453125,-1.5563088205128908,0.8507628426104783,2.1366265365079045
1667080664598336800,15.262336669921876,-0.788136582827568,0.3689011169314384,3.303391849555075
1667080664618278700,15.282278564453126,-0.5441815498612821,0.3214496299266815,3.9328494440332054
1667080664638220500,15.302220458984374,-1.2909434813797473,0.449973718509078,4.367043701869249
1667080664658162700,15.32216259765625,-2.1648813017420467,1.1600064864367245,4.682729361441731
1667080664678104600,15.3421044921875,-2.0110813176058233,1.24446230071187,5.620006704422831
1667080664698046700,15.362046630859375,-0.7111318152107298,1.0664473282516003,6.092823538380861
1667080664717988600,15.381988525390625,0.436200629222393,0.930166049671173,6.769441527962684
1667080664737930800,15.4019306640625,0.28661066399663687,0.7673135750293731,7.559107804575562
1667080664757872600,15.42187255859375,0.05696048910617828,0.5716027868807315,7.818706250745057
1667080664777814500,15.441814453125,0.0703827191285789,0.5472422526061534,8.064351574885844
1667080664797756700,15.461756591796876,0.06080094405189156,0.44040217256546016,7.90691703363955
1667080664817698800,15.48169873046875,-0.0038142975911498065,0.4813876784265041,7.710331216222047
1667080664837640700,15.501640625,0.005464110624790191,0.4507002792179584,7.537143810048699
1667080664857582600,15.52158251953125,0.22076456538438796,0.4180804506421089,7.32535224019289
1667080664877524700,15.541524658203125,-0.23810601467713713,0.19622575193345546,6.3023839881837365
1667080664897466600,15.561466552734375,-0.29140988097190856,0.23124913451969623,5.770015479582548
1667080664917408800,15.58140869140625,-0.5725844913944602,0.7507540698945522,5.4185734469741575
1667080664937350700,15.6013505859375,-1.1662576557859778,1.1550386348962782,4.709146535985171
1667080664957292500,15.62129248046875,-1.3972778038553892,0.5766998177587985,2.7938053738653656
1667080664977234700,15.641234619140626,-0.24090602065920827,-0.014798925203084946,0.9273875248685478
1667080664997176600,15.661176513671874,0.7142214517891406,0.7600958987355232,-0.3248655758500099
1667080665017118700,15.68111865234375,0.5689131094053387,2.1267028161257504,-0.23527272747997194
1667080665037060900,15.701060791015625,-1.0051379962861537,3.7426200099050995,-0.6439689349114894
1667080665057002500,15.72100244140625,-3.025628801141679,4.056002068710327,-1.2659180534556507
1667080665076944600,15.740944580078125,-3.583432487511635,2.213107426381111,-4.076356874474883
1667080665096886500,15.760886474609375,-2.47964736225158,-0.29245968228578567,-6.627120969218015
1667080665116828700,15.78082861328125,-0.766155637165904,-0.8690297361850738,-7.847792059975862
1667080665136770800,15.800770751953126,-0.3933268253967166,-1.0507394715100526,-8.021132610884308
1667080665156712700,15.820712646484376,-1.2926906173080206,-0.7924941935151815,-7.961655755043029
1667080665176654600,15.840654541015626,-2.4511563040435314,-0.8583399998664856,-8.216317913854121
1667080665196596700,15.8605966796875,-2.740033451667428,-0.7121025599390268,-8.308754205489159
1667080665216539600,15.88053955078125,-2.078233384250104,-0.5470978756994008,-8.400239480009674
1667080665236481800,15.900481689453125,-1.1539794812321662,-0.3425596379727125,-8.106635303863882
1667080665256423700,15.920423583984375,-0.3005763532459736,-0.3865092543363571,-7.210976503950357
1667080665276365800,15.94036572265625,-0.03528641743659973,-0.48330023404955863,-6.108643038803339
1667080665296306700,15.960306640625,-0.23461510382145642,-0.46823301329910755,-5.815776529282331
1667080665316248600,15.98024853515625,-0.721044868068397,-0.6606868454784155,-6.3632689572572705
1667080665336190700,16.000190673828126,-0.9973597635000944,-0.5952163021802902,-6.419883409404754
1667080665356132900,16.0201328125,-0.48067105458974835,-0.08884089749157428,-5.2844677588671445
1667080665376074500,16.040074462890626,-0.3017734540760517,0.4138432514637708,-3.8156373153209686
1667080665396016600,16.0600166015625,-1.3081152731940149,0.7572171284288167,-2.8178391604036093
1667080665415958500,16.07995849609375,-1.8463678713977336,0.8017039204090833,-2.360875436876714
1667080665435900700,16.099900634765625,-1.9132780921101569,0.701600455147028,-2.3786443178012964
1667080665455842800,16.1198427734375,-1.6928569333359598,0.9179109637320041,-1.1153688147436827
1667080665475784400,16.139784423828125,-1.4758768549263477,1.3515864583909512,0.4930249247282743
1667080665495726600,16.1597265625,-1.5431955103091894,1.8467057250499723,1.816661299920082
1667080665515669500,16.17966943359375,-1.4806860087737441,2.2811843527853486,2.5288722886696458
1667080665535611600,16.199611572265624,-0.9748331666544079,2.1025316669434306,2.815830450929701
1667080665555553800,16.2195537109375,-0.21676409757137297,1.6209744771689176,3.2007667568609115
1667080665575495700,16.23949560546875,-0.07250979428514838,1.3414479262143373,3.52077700163424
1667080665595437800,16.259437744140627,-0.31059871169701214,1.3288380354881286,4.115457297241687
1667080665615379500,16.27937939453125,-0.21993395977914332,1.165543077775836,4.820897768943012
1667080665635321000,16.299321044921875,-0.11652210062146186,0.4336041829884052,5.012462251067161
1667080665655263200,16.31926318359375,0.48552477823123336,-0.1990788032770157,5.3332934568345545
1667080665675205000,16.339205078125,0.835091810747981,-0.458571450984478,5.674051598343253
1667080665695147300,16.359147216796874,-0.020416765084862707,-0.14778525389134883,6.215214238774776
1667080665715089400,16.37908935546875,-1.0073067186273634,0.08589315360188483,6.886691942858696
1667080665735031000,16.399031005859374,-0.6623042175471783,0.28565000227093695,7.427064894217252
1667080665754973200,16.41897314453125,-0.03488192828893661,0.10848375559449196,7.431383341938257
1667080665774916000,16.438916015625,0.08011471633091569,0.03399053240716457,7.341176416790485
1667080665794858200,16.458858154296873,0.041123599157482385,0.17214929529726505,7.2817790559262034
1667080665814800400,16.47880029296875,0.48912397176697847,0.3802624689012766,7.3072934364110225
1667080665834742300,16.4987421875,0.8059422886312008,0.3678232585668564,6.86767978387475
1667080665854684400,16.518684326171876,0.47517172652110456,0.4560825567781925,6.403790352737904
1667080665874626000,16.5386259765625,-0.01809212152957916,0.6634066258311271,5.802009869736433
1667080665894568200,16.558568115234376,-0.049962593042850494,1.4751888726621865,5.077249488276243
1667080665914510300,16.57851025390625,-0.7834275283537805,1.8676210873067378,4.149956071431935
1667080665934452200,16.5984521484375,0.3421095561176538,2.660740719243884,3.294180076834559
1667080665954394400,16.618394287109375,0.4896612935140729,2.393254150173068,1.5733970256969332
1667080665974336300,16.638336181640625,-0.7236588499590754,1.6846955464512108,-0.8321007391732186
1667080665994278100,16.658278076171875,-2.397230652588606,3.1996973740637302,-1.327068979988992
1667080666014220300,16.67822021484375,-2.477476155692339,3.494495143908262,-1.446478034223616
1667080666034162200,16.698162109375,-2.52427619305104,2.3468325907379386,-2.6746581854373215
1667080666054104300,16.718104248046874,-2.274648521275818,1.8732564628452062,-3.8804438417524096
1667080666074046200,16.738046142578124,-2.5032988714739677,1.0151648847818373,-5.811506012356281
1667080666093988000,16.757988037109374,-2.742420054543018,-1.12116676043272,-8.254104331412911
1667080666113930200,16.77793017578125,-1.753913167323172,-2.4158044201552866,-9.523778814792632
1667080666133872400,16.797872314453127,-1.230062896220386,-2.0774650302261115,-9.471537170901893
1667080666153815300,16.817815185546873,-0.5895090304493904,-1.6834323946475982,-8.834654394859076
1667080666173757400,16.83775732421875,0.39235798036456104,-1.2096423317432403,-8.512922440859676
1667080666193699300,16.85769921875,-0.043784196668863296,-0.8179834395587444,-8.364472001057862
1667080666213641200,16.87764111328125,-1.2026970426499843,0.0347474882543087,-7.6133075967967505
1667080666233583000,16.8975830078125,-0.8493512222468852,0.08172317444086075,-7.219958267307281
1667080666253525200,16.917525146484376,-0.23231267209798095,-0.24407646738886832,-6.831925748926401
1667080666273467400,16.93746728515625,0.2629281751140952,-0.5662333688020705,-6.609180238857865
1667080666293409300,16.9574091796875,-0.22054770776331423,-0.3533779691070318,-6.3939037494957445
1667080666313351200,16.97735107421875,-0.5552639387592673,-0.20692074894905088,-6.302388079836964
1667080666333293300,16.997293212890625,-0.23530279382467267,-0.013313070559501648,-6.123585171869397
1667080666353235200,17.017235107421875,-0.3364870400607586,0.20954174510240553,-5.203603247082233
1667080666373177300,17.03717724609375,-0.7072247247695922,0.8506897773742675,-4.363102855288982
1667080666393119200,17.057119140625,-1.3064625375509262,1.5103624773740767,-2.911403287024796
1667080666413061000,17.07706103515625,-1.3106520981952547,1.9645225416570902,-1.037672484666109
1667080666433003300,17.097003173828124,-1.4986299540042876,2.0476000533163545,-0.21244886472076177
1667080666452945200,17.116945068359374,-2.0984556496761737,2.3572452636808157,0.11968841916527598
1667080666472887300,17.13688720703125,-2.4175147312045095,2.2260873194634914,0.8614628080621362
1667080666492829400,17.156829345703127,-2.1583362640127537,2.216650213554501,1.5812226047560571
1667080666512771000,17.17677099609375,-1.3059960890829563,1.8152333129435776,2.3085051981702445
1667080666532713200,17.196713134765623,-1.3007923829600214,1.7195552629083395,2.5554323788151145
1667080666552655000,17.216655029296874,-2.096648307993263,1.2632254533708094,3.1982810775250194
1667080666572597200,17.23659716796875,-2.252834895005077,0.9552712648332119,3.751206051942706
1667080666592539400,17.256539306640626,-1.7097895095668731,0.7144073297500609,4.076276794975996
1667080666612481300,17.276481201171876,-1.3245499829053877,0.6739455555021763,4.273414985579252
1667080666632423200,17.296423095703126,-1.2870441358536482,0.7150292610406875,4.759150922343134
1667080666652365300,17.316365234375,-1.2904933995246886,0.7683984476566315,5.3261330636858935
1667080666672307000,17.336306884765627,-0.675603113450855,0.6868173120349645,6.117065414711833
1667080666692249000,17.3562490234375,-0.39117593097314235,0.8125795346885919,6.882675108432769
1667080666712191200,17.376191162109375,-0.29231004468202587,0.9596341362178326,7.238532034873962
1667080666732133000,17.396133056640625,0.0301866100795567,0.91439389552176,7.286207393762469
1667080666752075300,17.4160751953125,0.4050177015818655,0.6473153227299452,7.139617487135529
1667080666772017000,17.436016845703126,0.6922890214443206,0.4602957905590534,6.798636058264971
1667080666791959000,17.455958984375,0.41667599067166444,0.5902063650637864,6.542253651532531
1667080666811901200,17.475901123046874,0.4613720414884388,0.6135960084795952,6.248040988099575
1667080666831843000,17.495843017578125,0.607416589192301,0.33905893637537954,6.001838614597916
1667080666851785200,17.51578515625,0.3696199327252805,0.5151525853842497,5.833367131030559
1667080666871727000,17.53572705078125,-0.3470388292133808,0.8232768697917461,5.784288919606804
1667080666891669000,17.5556689453125,-0.7701046670526266,1.0693342818647622,5.470176792961358
1667080666911611100,17.575611083984374,-1.1242951215863226,1.2156512167692184,5.000568399655819
1667080666931553000,17.595552978515624,-1.4813006335407495,1.3083078731566666,4.088091735932231
1667080666951495200,17.6154951171875,-0.9391809846453368,1.4399749359399079,2.8656814002916216
1667080666971437300,17.635437255859376,-0.368913099630177,1.3764905980229376,1.3875450760006904
1667080666991380200,17.655380126953126,-0.2765782225430012,1.399664552861452,-0.4896262222006917
1667080667011321000,17.675321044921876,-1.1335317364871502,1.8197680337637663,-1.9586045497849582
1667080667031264000,17.695263916015627,-1.8058289402604102,2.527097972473502,-3.051200172510743
1667080667051206100,17.7152060546875,-2.0715639894887805,3.487238304647803,-3.403589130580425
1667080667071148000,17.73514794921875,-3.066727996510267,2.8911165780603882,-4.173097877566516
1667080667091090200,17.755090087890625,-2.7154104670643804,0.14609773919582367,-6.213465933802723
1667080667111032000,17.775031982421876,-1.467276784363389,-2.0062533129274844,-7.744570754954219
1667080667130974000,17.794973876953126,-0.8530772570326924,-2.187999288609624,-8.46958949508965
1667080667150916000,17.814916015625,-1.1392457302197814,-2.0036311477303506,-8.226928155195713
1667080667170858200,17.834858154296874,-1.498025266109407,-1.5967840387642382,-7.600931514826416
1667080667190800100,17.854800048828125,-1.624983420549333,-1.3004168276458978,-7.1413698837608095
1667080667210742000,17.874741943359375,-1.3636658955022691,-1.005848190382123,-7.160884147047996
1667080667230684200,17.89468408203125,-0.3735959967494011,-1.3243898239076137,-7.354246326243877
1667080667250626000,17.9146259765625,0.6487593840584158,-1.5003864422827957,-7.237897244101762
1667080667270568200,17.934568115234374,1.1413941404253243,-1.1288275043189524,-6.310227102899551
1667080667290510000,17.954510009765624,0.3832499602794647,-0.6529618041843176,-6.091154728385805
1667080667310452200,17.9744521484375,-0.555050003747642,-0.9275473916053771,-6.899360285773873
1667080667330394000,17.99439404296875,-0.6608794454410671,-1.2265811915844678,-7.256113284271955
1667080667350336000,18.0143359375,-0.22521628409624098,-0.7214005496382713,-6.227021580946445
1667080667370278100,18.034278076171876,-0.22447364903539418,0.20932488748133182,-4.5668239314138885
1667080667390220300,18.05422021484375,-0.9829799404919147,1.4500819039344788,-2.8892753341078756
1667080667410162200,18.074162109375,-1.5912097457632421,2.018180482086539,-1.7251821628794073
1667080667430104000,18.09410400390625,-1.602840562324226,2.245444346362352,-0.3676826810523867
1667080667450046000,18.1140458984375,-1.559920581269264,2.763308528792858,0.7478261997491121
1667080667469988000,18.133988037109376,-1.4292220712572334,2.9469734898388382,1.4415604515656828
1667080667489930200,18.15393017578125,-0.8906814498923719,2.4447388382166624,1.704294857673347
1667080667509872000,18.1738720703125,-0.66237552921772,1.3616098397552967,1.979679778778553
1667080667529814000,18.19381396484375,-0.6824620394349098,0.8695768486738205,2.594378195542097
1667080667549756200,18.213756103515625,-0.9487176054060459,0.7237877370357513,3.2652807300865647
1667080667569698000,18.233697998046875,-1.3481249197602272,1.0168529839992522,3.9574651221126316
1667080667589640200,18.25364013671875,-1.4963618629418312,1.0365525407254694,4.452742501942813
1667080667609582000,18.27358203125,-1.4748065953463314,0.4319003016799688,4.641668452256917
1667080667629524000,18.29352392578125,-1.1517653123140335,-0.2631780582219362,5.01822680594325
1667080667649465900,18.3134658203125,-0.5590425805151462,-0.6164391229510306,5.414464842611551
1667080667669407700,18.33340771484375,-0.1825331805370748,-0.5848474683791398,6.03431991148591
1667080667689350000,18.353349853515624,-0.587581277257204,-0.3363455857634544,6.900740341955423
1667080667709292000,18.3732919921875,-0.8134218307316303,-0.18644903880655764,7.295217214170098
1667080667729234000,18.39323388671875,-0.3499025480814278,-0.2818482719004154,7.434471371081471
1667080667749176000,18.413176025390626,-0.11588000332564115,-0.2549438983619213,7.222409752112626
1667080667769118000,18.433117919921877,-0.2887153811909258,-0.31918986830115315,6.848834213629365
1667080667789059800,18.453059814453123,-0.0002827624641358852,-0.2645464239656925,6.499470156338811
1667080667809002000,18.473001953125,0.36329336005225776,0.013657353952527046,6.147190503862499
1667080667828944000,18.49294384765625,0.3534684238694608,0.0737514649093151,5.612224964505434
1667080667848886000,18.512885986328126,0.421577060586214,-0.15125263774096964,4.91544681494832
1667080667868828000,18.532827880859376,0.6778957544326781,-0.07727087120711804,4.141550062136352
1667080667888769800,18.552769775390626,0.8673872296750545,0.257822084146738,3.369666110451519
1667080667908712000,18.5727119140625,1.4885023816131056,0.9773112472057341,2.885881600016355
1667080667928654000,18.592654052734375,1.8411213490463791,1.058116722279787,1.9060304590694606
1667080667948596000,18.612595947265625,0.8693889248862862,1.632646794784069,1.257341509898752
1667080667968537900,18.632537841796875,-1.925018214264512,2.8546681311070916,0.8801701388806105
1667080667988479700,18.652479736328125,-3.110878980664909,2.4355887325555083,-0.4222543753258884
1667080668008422000,18.672421875,-2.974039191418886,1.3798586131513118,-2.067953982298076
1667080668028364000,18.692364013671874,-2.1756942260488867,0.587758387389779,-4.240681175234913
1667080668048306000,18.712305908203124,-1.165804066799581,-0.6660504183381796,-6.335174497151375
1667080668068247800,18.732247802734374,-0.26722090387195346,-1.3028788338452577,-7.248362524014711
1667080668088190000,18.75218994140625,-0.20842063211798667,-1.3106032906174658,-6.697075964453816
1667080668108131800,18.7721318359375,-1.2581436200618743,-0.7088385897070169,-7.616442972213029
1667080668128074000,18.792073974609377,-2.2212398794323205,-0.446060928979516,-7.8702669266343115
1667080668148015900,18.812015869140627,-1.9440718743026255,-0.06309095468521118,-7.482379369682073
1667080668167958000,18.8319580078125,-1.2109350019022822,-0.23594810599088667,-7.494556129688024
1667080668187900000,18.85189990234375,-0.2680401113003492,0.006067337214946746,-7.056897702872753
1667080668207841800,18.871841796875,-0.1035430843219161,0.6696113256901502,-6.13471271508336
1667080668227784000,18.891783935546876,-0.38838849221169947,0.6647258917361497,-5.616115542203188
1667080668247726000,18.91172607421875,-0.02515197691321373,0.12796119400262831,-5.447759209448098
1667080668267668000,18.93166796875,0.27166677736490963,-0.24598376231491564,-5.372511368501186
1667080668287609900,18.95160986328125,0.012301555429399013,-0.20441315004229543,-4.92635691601932
1667080668307551700,18.9715517578125,-0.6452373474121094,-0.033551556468009947,-3.648789633563161
1667080668327494000,18.991493896484375,-0.864659558276832,-0.31357845816016194,-2.740545785103738
1667080668347436000,19.01143603515625,-1.3968231919556855,-0.3336322351515293,-3.13110197674334
1667080668367378000,19.0313779296875,-2.1390806516617533,-0.22490765653848646,-3.681419399011135
1667080668387319800,19.05131982421875,-2.3110098744675516,0.4529629634529352,-2.666693782429397
1667080668407262000,19.071261962890624,-1.4795646035283803,1.0185726473987102,-1.0048173860296608
1667080668427203800,19.091203857421874,-0.7956415516301989,0.8870867864012718,0.22663170385211706
1667080668447147000,19.11114697265625,-1.0786389935657381,0.5187655151844024,0.9709975340142846
1667080668467089000,19.1310888671875,-2.7514272446021435,0.5785241105765104,0.9405591411307453
1667080668487031000,19.151031005859377,-2.9497336022019383,0.8647346693396568,1.0656620230928062
1667080668506972700,19.17097265625,-1.8157962075233458,0.7570026088953018,2.1057026981949805
1667080668526914800,19.190914794921873,-0.6184685829520226,0.5869792197108269,2.7443831713095306
1667080668546857000,19.21085693359375,-0.5040285493016242,0.1904120972186327,2.97127148027122
1667080668566798800,19.230798828125,-1.5233955619484185,-0.12787293119728566,3.3760683787092565
1667080668586741000,19.250740966796876,-1.9593663279376923,-0.22358020732700823,3.6524466947659846
1667080668606683100,19.27068310546875,-1.7417419602751731,-0.33320787225961684,4.142125231675803
1667080668626625000,19.290625,-1.0658312421798706,-0.12482581858634947,5.49753417096436
1667080668646567200,19.310567138671875,0.34279227768480774,0.0380979677259922,7.20127227153778
1667080668666509000,19.330509033203125,0.9544991114169359,-0.1682300760269165,8.284218314647674
1667080668686451000,19.350450927734375,0.25200682199671864,-0.478517675948143,8.72667858878672
1667080668706393000,19.37039306640625,-0.8980570932269096,-0.3281190246880054,8.289770688077807
1667080668726335000,19.3903349609375,-0.915747648218274,0.17493688018918035,8.027752321285009
1667080668746277000,19.410277099609374,-0.7135942598015069,0.6539081451237201,7.529901583835482
1667080668766219300,19.43021923828125,0.005284077882766723,0.3261246360003948,7.060294944095611
1667080668786161000,19.450160888671874,0.4463794934093952,0.09326981984972953,6.573182458281517
1667080668806103000,19.47010302734375,0.1807097645021975,0.2836298946201801,6.110238199040293
1667080668826045000,19.490044921875,0.1608265217721462,0.7124310612410306,5.791157636332511
1667080668845987000,19.509987060546877,-0.5875603805996478,1.19746440269351,4.677673539356887
1667080668865929200,19.52992919921875,-1.4285118771612644,0.9472200603246689,3.1077877366513014
1667080668885870800,19.549870849609373,-1.0896230366557835,0.5151169295489788,1.1997516368478536
1667080668905813000,19.56981298828125,0.3118963502921164,0.4889928927332163,-0.17035364405214787
1667080668925755100,19.589755126953126,0.35077407021895046,1.9161720599859953,-0.5105366160213947
1667080668945697000,19.609697021484376,-0.7565618793904781,2.804864528018236,-0.812219469204545
1667080668965639200,19.62963916015625,-2.104382555507123,1.9563491720736026,-2.327217497424781
1667080668985580800,19.649580810546876,-2.3044553382575512,0.690604429358244,-5.0532735694050785
1667080669005523000,19.66952294921875,-0.47619332465380426,-1.2714292180925606,-7.312966221350431
1667080669025465000,19.689465087890625,0.7002291667938232,-1.8120166889846323,-8.692428528660535
1667080669045407000,19.709406982421875,0.052525137007236475,-0.42732758693695067,-7.703585249093175
1667080669065349000,19.72934912109375,-2.370518879012763,0.4893482820421457,-6.958857599881291
1667080669085291300,19.749291259765624,-3.7447909242033957,0.3770142807602882,-7.514526904571056
1667080669105233000,19.76923291015625,-2.9596821647644043,-0.2401607552498579,-8.520335931986569
1667080669125175000,19.789175048828124,-1.7031144157171247,-0.5703390505552292,-9.042137453866005
1667080669145117000,19.809116943359374,-1.842940819558501,-0.31709961802363396,-8.575496093672513
1667080669165059000,19.82905908203125,-2.097633665768802,-0.16402794816195965,-7.465666135290265
1667080669185001200,19.849001220703126,-0.9043769438982009,-0.4835059857547283,-6.370884108436107
1667080669204942800,19.86894287109375,-0.59358460932523,-0.4526227717131376,-6.060183836060762
1667080669224885000,19.888885009765627,-1.3154010462880135,-0.4312947370022535,-6.261406665629148
1667080669244827100,19.9088271484375,-1.0881912502869964,-0.3918681510210037,-6.027635903677344
1667080669264769000,19.92876904296875,-0.3055453738301992,0.2110942352414131,-4.564377122783661
1667080669284711200,19.948711181640626,-0.6040215399265288,0.7939560827612876,-3.0286908190608024
1667080669304652000,19.968652099609375,-1.1638766058683394,1.025885600760579,-2.32572755112797
1667080669324594000,19.988593994140626,-1.8336016210660337,0.9387918391972779,-2.9465485424250364
1667080669344536000,20.0085361328125,-2.0322809036314484,0.7554442735373973,-1.8500053511172532
1667080669364478200,20.028478271484374,-1.4478057756960392,0.2743938642412424,-0.10605740523040294
1667080669384419800,20.048419921875,-0.8767012937262654,0.23098960680067537,0.8997451924443245
1667080669404362000,20.068362060546875,-1.25165221221596,0.5243541289716959,1.8991408456861971
1667080669424304000,20.08830419921875,-2.2845099900767205,1.0930191088348626,2.5574142002820968
1667080669444246000,20.10824609375,-2.5060984390646217,1.349803666627407,3.6183231836289167
1667080669464188200,20.128188232421873,-2.7835014219939707,0.9504244093239307,4.232082858237624
1667080669484130000,20.148130126953124,-2.3593100872561332,0.5457546443969011,5.072435950514674
1667080669504072000,20.168072021484374,-1.723073500162363,0.37847324739694593,6.3950447362244125
1667080669524014000,20.18801416015625,-1.0962778183698654,0.6224900935530662,7.745297315663099
1667080669543956000,20.2079560546875,-0.720586018384993,0.7878817312836647,8.532676358121632
1667080669563898000,20.227898193359376,-0.3974263696700334,0.679026219767332,8.871215070015191
1667080669583840300,20.24784033203125,-0.6644101037852466,0.3712088093519211,8.909607636773586
1667080669603782000,20.267781982421877,-0.6418292925342917,0.23320436024069785,8.566890177890658
1667080669623724000,20.28772412109375,-0.32369740885347126,0.26374679802060125,7.946934571251273
1667080669643666200,20.307666259765625,0.41031098568439484,0.4863876786708832,7.512569925284385
1667080669663608300,20.3276083984375,0.7065544242925942,0.5930377890974283,6.933567091280222
1667080669683550500,20.347550537109374,0.34979046600908037,0.5948258415579796,6.14884996150732
1667080669703492400,20.367492431640624,-0.14314341943487524,0.5118465295761824,5.284677602225542
1667080669723434500,20.3874345703125,-0.31125907530188557,0.6933809083342551,4.70473777963221
1667080669743376100,20.407376220703124,-0.32287118716239926,1.0357061530292033,4.558526350928843
1667080669763318300,20.427318359375,-1.110187978039682,0.6268208162337541,3.889035144487023
1667080669783261200,20.44726123046875,-1.2145609373144806,0.019915245303511617,3.24701266746819
1667080669803203300,20.467203369140623,-0.8801961501047014,0.6301958456248045,3.000908493643999
1667080669823145500,20.4871455078125,-0.17950784136652945,1.619746396678686,2.0195280973032115
1667080669843087400,20.50708740234375,0.3418405299179256,1.7169284215360878,0.3970818670812994
1667080669863029500,20.527029541015626,0.12575666969567537,1.595917192801833,-1.240663492950797
1667080669882971400,20.546971435546876,-0.8887900831878185,1.5661235275626182,-2.2769345863863824
1667080669902913300,20.566913330078126,-1.951105718462169,2.4322242245584724,-3.2980548724412917
1667080669922855400,20.58685546875,-1.8821224908679723,2.526708680894971,-5.081325359413028
1667080669942797300,20.60679736328125,-1.0713780626520515,0.9255717076182365,-6.479987457233667
1667080669962739500,20.626739501953125,-0.6333151466891169,-0.53447337192595,-6.650675447806716
1667080669982681300,20.646681396484375,-1.6861738023102282,-0.017355623948574064,-6.333114642012119
1667080670002623200,20.666623291015625,-2.280947036898136,0.6489765339404344,-6.383632530850171
1667080670022565400,20.6865654296875,-2.4029215577065943,0.09972060342431067,-7.522600320911407
1667080670042507500,20.706507568359374,-1.4070640154629945,-0.9946855758547782,-8.10490453454852
1667080670062449400,20.726449462890624,-0.337635041052103,-0.903205562031269,-7.5016136469841
1667080670082391300,20.746391357421874,0.09635989481955766,-0.15803075357377527,-6.445224186888336
1667080670102333200,20.766333251953125,0.26989246116876603,0.03028057197332382,-5.897524838164449
1667080670122275300,20.786275390625,-0.16614099479317665,-0.40775136432945724,-6.021942075949907
1667080670142217500,20.806217529296877,0.6316933907061815,-0.987097312682867,-5.8280152486085885
1667080670162159400,20.826159423828123,1.22892687792778,-1.9076316106557845,-6.205264507168531
1667080670182101200,20.846101318359374,1.0359428843945264,-1.396357912531495,-5.6105269284158945
1667080670202043400,20.86604345703125,0.3993210973754525,0.027134675163030624,-4.842639352890849
1667080670221985300,20.8859853515625,-1.3839721859499812,0.9043249214500189,-4.241561757461726
1667080670241927400,20.905927490234376,-1.6549153252154587,0.3907902926564216,-3.6560298139497633
1667080670261869300,20.925869384765626,-0.839754249601066,0.16815175009369848,-3.1486984237104654
1667080670281811500,20.9458115234375,-0.10621961005479097,0.14741232892572878,-2.6975831339508294
1667080670301753300,20.96575341796875,-0.46572336856573815,0.7375766084134578,-1.92795923615247
1667080670321695200,20.9856953125,-0.8246621866703033,1.4884545969486236,-0.7109858308687805
1667080670341637400,21.005637451171875,-1.7005822668910024,2.174377005970478,-0.02174567560106516
1667080670361579500,21.02557958984375,-2.042602975681424,1.7217822913080454,0.34918344002664087
1667080670381521400,21.045521484375,-2.0381594402760266,1.3788462212383745,0.9691346627518534
1667080670401463300,21.06546337890625,-1.3634019838690756,1.2774644066035747,1.6599202938959001
1667080670421405400,21.085405517578124,-1.189827039682865,1.6563865668117999,2.696830562017858
1667080670441347300,21.105347412109374,-1.1385305676877497,1.5548761573612688,3.296538038137555
1667080670461289500,21.12528955078125,-1.279134970164299,1.206381284120679,3.532252627633512
1667080670481231400,21.1452314453125,-1.5949011476270853,0.34623043543994425,3.5227865878909825
1667080670501173200,21.16517333984375,-1.4896614885203538,-0.4258072455018759,3.6872462054684756
1667080670521115400,21.185115478515623,-0.7588698640719056,-0.7029717435002326,4.133670707063376
1667080670541057300,21.205057373046873,-0.4607777288571,-0.5954483573704957,4.772435059069097
1667080670560999400,21.22499951171875,-0.5358972672492265,-0.29138766914010045,5.453748805251717
1667080670580941300,21.24494140625,-1.2433644224725664,0.22883915076851843,6.144271401545405
1667080670600883500,21.264883544921876,-0.8826770071350037,0.14622165783643723,6.790502436169982
1667080670620825300,21.284825439453126,-0.1888520082950592,0.020422610303759574,6.927654652366042
1667080670640767500,21.304767578125,0.4268167148053646,-0.23598083921670912,6.707824152961373
1667080670660709400,21.32470947265625,0.7091010400354861,-0.33094518802464007,6.597714841991663
1667080670680651500,21.344651611328125,0.7045593049526214,-0.3153068893879652,6.6520104958027595
1667080670700593400,21.364593505859375,0.40450551427602766,-0.10421791484355926,6.805217774742841
1667080670720535600,21.38453564453125,0.27997955541908737,-0.2061100170880556,6.6511190999209875
1667080670740477400,21.4044775390625,0.2976417610988021,-0.3103483901977539,6.375164562234282
1667080670760419600,21.424419677734374,0.17842413778305052,-0.18021335928738116,5.739526817816496
1667080670780361500,21.444361572265624,0.07220774259865284,0.12444237222671509,4.873581603643298
1667080670800303400,21.464303466796874,-0.10112754761278629,0.6775923875719309,3.5912656653553245
1667080670820245500,21.48424560546875,0.39711072784960266,1.2459306196987627,2.35719002636224
1667080670840187600,21.504187744140626,0.9157862266629934,1.5384206971228123,0.949578898410499
1667080670860129500,21.524129638671877,1.0833610536515712,2.01896198785305,-0.3724991414234042
1667080670880071400,21.544071533203127,0.35061902578771115,2.3036434373527763,-1.5400596965014934
1667080670900013600,21.564013671875,-0.2943891890436411,2.509468207758665,-2.2088874705985186
1667080670919955500,21.58395556640625,-1.3055553595781326,2.630971603924036,-3.6015897832319137
1667080670939897600,21.603897705078126,-1.836795740932226,2.689924143630266,-4.9306478912115095
1667080670959839500,21.623839599609376,-2.0599077462255955,0.7859218293875455,-7.138444351702928
1667080670979781400,21.643781494140626,-1.6525193699896334,-2.3102304145276547,-10.027933620822429
1667080670999723500,21.6637236328125,-0.12445114005506037,-3.601958908805251,-11.21698441543579
1667080671019665400,21.68366552734375,1.0278142307356,-2.346919684499502,-9.159348121273517
1667080671039607600,21.703607666015625,-1.5623729428574442,-1.2871715616255999,-8.077948138561844
1667080671059549700,21.7235498046875,-3.7535061455786227,-1.7105746685951948,-8.979184446346759
1667080671079491300,21.7434912109375,-3.0007845750033852,-1.7917431317627428,-9.46361982190609
1667080671099433500,21.76343359375,-1.3127508240401744,-1.3803425972759722,-8.02275465912819
1667080671119375400,21.783375244140625,-0.770812523061037,-0.751841865131259,-6.851563930854201
1667080671139317500,21.8033173828125,-1.0015063617855309,-0.4049813150942325,-5.967203939068317
1667080671159259600,21.823259765625,-1.0216881490707397,-0.2963011601448059,-5.663922418516874
1667080671179201500,21.843201416015624,-1.891634415578842,0.24003625208735466,-5.057963773047923
1667080671199143400,21.863143310546874,-2.32001121930778,0.8267349012911319,-3.6952138233467933
1667080671219085600,21.88308544921875,-1.6505629752248525,1.5775456698089838,-2.2946002991974352
1667080671239027500,21.90302734375,-1.4456567809686063,2.144880277851224,-1.5065160310789942
1667080671258969600,21.922969482421873,-1.8601044280663133,2.488395609113574,-0.10001753141111694
1667080671278911500,21.942911376953123,-1.9360878898113965,2.7706594760775562,0.9707622639536857
1667080671298853400,21.962853271484374,-0.9908446825176477,1.9214555533468722,1.7426859631270168
1667080671318795500,21.98279541015625,-0.3808198105230927,1.6951619954079389,2.667236803264916
1667080671338737400,22.0027373046875,-0.5089432093501091,1.2106091309487819,3.6334690225735304
1667080671358679600,22.022679443359376,-1.1367435381405055,0.28981822786629197,4.2267920583531255
1667080671378621700,22.04262158203125,-1.514096841596812,-0.3148217362195253,4.927139006307721
1667080671398563300,22.062563232421876,-1.3601006042361259,-0.6291793620586394,5.500010790210962
1667080671418505500,22.08250537109375,-0.9819440215729176,-0.4101467350333929,6.203713770595193
1667080671438447400,22.102447265625,-0.7863559830211102,0.08400573242008685,7.411621825891733
1667080671458389500,22.122389404296875,-0.6858885067522525,0.20575404325723648,8.117280031996964
1667080671478331600,22.14233154296875,-0.046727848905324935,0.08058803293108939,8.763526264190673
1667080671498273300,22.162273193359376,0.5512225544139743,0.007104863569140434,9.373397114667295
1667080671518215400,22.18221533203125,0.9665947690106927,0.44927872198224067,10.017280124861001
1667080671538157600,22.202157470703124,0.9022453386969864,0.6695107879251241,10.171337883150576
1667080671558099500,22.222099365234374,0.9180712688602507,0.21237901435494422,9.572216390225291
1667080671578041600,22.24204150390625,0.5682067147016525,-0.412498266595602,8.218007182115317
1667080671597983500,22.2619833984375,0.1624701973259449,-1.3812696489930152,6.685646807944774
1667080671617925400,22.28192529296875,-0.704075320827961,-2.8602696043759583,4.132392065429687
1667080671637867300,22.3018671875,-0.9417873677514493,-2.410776947382092,2.396263853383064
1667080671657809000,22.321808837890625,-1.032249290573597,1.0499451062619685,2.302595681865513
1667080671677751000,22.3417509765625,-1.807776567196846,3.997828112161159,1.6291832103267312
1667080671697692200,22.361692138671874,-1.5544205225482581,5.401246464598178,1.3895257284238933
1667080671717634300,22.38163427734375,-0.4033054908365011,4.075836065471172,-0.17064122882187366
1667080671737576000,22.401575927734374,0.24588380907177923,2.519765145367384,-1.964410605715215
1667080671757518000,22.42151806640625,0.21444588375687598,1.4105389980971812,-4.097719980499148
1667080671777460200,22.441460205078126,0.2777747388511896,-0.14272855502367018,-6.427610788786411
1667080671797402000,22.461402099609376,0.8878481261625886,-0.5852841062307358,-7.6299436742991205
1667080671817344300,22.48134423828125,-0.05757219126373529,-0.023052958807349203,-8.155152374273538
1667080671837286100,22.5012861328125,-2.4115827108070254,0.03403554059267044,-8.732318640500306
1667080671857228000,22.52122802734375,-4.078993652719259,-0.765765761065483,-10.035588519489764
1667080671877170200,22.541170166015625,-3.6401647208198904,-1.0475970818310976,-9.809733937489986
1667080671897112000,22.561112060546876,-2.813018608379364,-0.548462734311819,-8.2688407127738
1667080671917054200,22.58105419921875,-2.31849117013365,-0.24813597191274164,-7.577066070592403
1667080671936996000,22.60099609375,-1.4615011235713957,-0.7651110965490341,-7.177685059723258
1667080671956938000,22.62093798828125,-0.5058557647287846,-1.3162176233679055,-6.526680819347501
1667080671976880000,22.640880126953125,-0.2280228659495711,-1.020545993298292,-5.379657733124494
1667080671996822000,22.660822021484375,-0.74023004553169,-0.3593459376007318,-4.750229364740848
1667080672016764200,22.68076416015625,-1.6029045674711464,-0.023306056785583496,-4.008603773197532
1667080672036706300,22.700706298828123,-1.8250541574731467,0.2001975781738758,-3.2809023698493838
1667080672056648000,22.72064794921875,-1.5559589841619132,0.01419394504725933,-2.7584043901383875
1667080672076590000,22.740590087890624,-1.295826577246189,0.20787410415112972,-2.2614479711800812
1667080672096532200,22.7605322265625,-1.4900067948266862,0.7898387105703354,-1.5446926169991493
1667080672116474000,22.78047412109375,-1.411188401916623,1.702159306949377,-0.038895255583524704
1667080672136416300,22.800416259765626,-0.6796840991541743,1.1422931350916623,1.4922946135029196
1667080672156358000,22.82035791015625,-0.41956747432947156,0.7226099254280328,1.532624285803735
1667080672176300000,22.840300048828126,-1.4013956144377588,0.6617611967116593,1.522853710156679
1667080672196242200,22.8602421875,-2.0286524840012192,1.056369586351514,1.26161129617244
1667080672216184000,22.88018408203125,-1.5578633564785123,1.6592518931150435,1.7634101867258547
1667080672236126200,22.900126220703125,-0.873936212927103,1.0191314503252507,2.4654791361674664
1667080672256068400,22.920068359375,-0.4600993912041187,0.5455652593046426,2.4503522941842673
1667080672276010000,22.940010009765626,-1.0280606067121028,0.2283352928996086,2.5354411456659434
1667080672295952100,22.9599521484375,-0.8413090778276324,0.06472527788877487,2.7113839880272743
1667080672315894000,22.97989404296875,-0.16707725272998214,-0.4802694880515337,3.44984147092849
1667080672335836200,22.999836181640624,0.549881953459978,-0.6762409729629755,4.245760378195345
1667080672355778300,23.0197783203125,0.8955630844540894,-0.6091238315016031,5.282638789874315
1667080672375720000,23.039719970703125,0.8826457352139055,-0.8558598734885454,6.177112763917446
1667080672395662000,23.059662109375,0.16623276472985743,-0.6339876391232013,7.040654424080253
1667080672415604200,23.079604248046873,-0.9510153609544039,-0.08853694610893725,7.354362061578035
1667080672435546000,23.099546142578124,-1.150309852808714,0.24720658210813998,7.575724592855572
1667080672455488300,23.11948828125,-1.0384136584222317,0.3848702549576759,7.518825478547811
1667080672475430000,23.139429931640624,-0.6625356882154941,0.4601479065209627,7.3043059450328345
1667080672495372000,23.1593720703125,-0.24847879400104284,0.6821680249243974,6.781969585624337
1667080672515314200,23.179314208984376,-0.19842676910907028,0.7854951284080743,6.138066701686382
1667080672535256000,23.199256103515626,-0.3725052789032459,0.5543576375693082,5.30387330108285
1667080672555198200,23.2191982421875,-0.7999462630867957,0.17709259691834447,3.9540895081996914
1667080672575140000,23.23914013671875,-0.7648489384815096,0.10527005424499511,2.7540178456172346
1667080672595082000,23.25908203125,-0.21000877809226512,0.6335586000561714,2.2558163950338956
1667080672615024000,23.279024169921875,-0.2818003411054611,1.5353075335383415,1.4236641448691487
1667080672634966300,23.29896630859375,-0.28177228405475613,1.923770260030031,1.1731158511176705
1667080672654908400,23.318908447265624,0.2323094572275877,2.2125673281550404,0.75203563413769
1667080672674850600,23.3388505859375,1.0973384333387017,1.8206559225142,-0.21713446525372562
1667080672694792400,23.35879248046875,0.041055356226861475,0.5161135393708944,-2.697345525802672
1667080672714734600,23.378734619140626,-2.7368647585034367,-0.2913771477460861,-4.831673137718439
1667080672734676500,23.398676513671877,-3.70004109737277,-0.40253275289833546,-6.043120473057031
1667080672754618400,23.418618408203123,-2.716864757525921,-0.8474205464452504,-7.301668582266569
1667080672774560500,23.438560546875,-1.3238754446446894,-1.4839210451722145,-8.274659043663739
1667080672794502400,23.45850244140625,-0.3752639299616217,-1.9154086743980645,-8.698262641641497
1667080672814444500,23.478444580078126,-0.6316200332090258,-1.1645002907246351,-7.854748454985022
1667080672834386700,23.49838671875,-1.9184528643995522,0.19152853402793407,-6.989879930132627
1667080672854328300,23.518328369140626,-2.2477356721699238,0.4178630084991455,-6.870459769982099
1667080672874270500,23.5382705078125,-1.4663164148986338,-0.26404373514056206,-7.14849228298664
1667080672894212600,23.558212646484375,-0.6074427465468645,-0.6659113021284342,-6.430206650498509
1667080672914154500,23.578154541015625,-0.19878245067894457,-0.6676993545889854,-5.936725798696279
1667080672934096600,23.5980966796875,-0.4142901184484362,-0.6763023477613925,-5.84171994883418
1667080672954038300,23.618038330078125,-1.0276605014786124,-0.37093057693243026,-5.651513603320717
1667080672973980400,23.63798046875,-1.51320968349874,-0.36841128758788105,-5.091500131946802
1667080672993922600,23.657922607421874,-1.7649717369541524,-0.08825988273322581,-4.582146588230133
1667080673013863700,23.67786376953125,-2.0529384917348623,0.3626654374122619,-3.7984815978586672
1667080673033805600,23.6978056640625,-1.9934066908359527,0.520502714240551,-3.5957846040844914
1667080673053747500,23.71774755859375,-1.5784417418658732,0.468345826023817,-2.9812954461574552
1667080673073689300,23.737689453125,-1.0586509752869606,0.2961410011470318,-1.7512448248967527
1667080673093631500,23.757631591796876,-1.1109095703125,0.23983459203541277,-0.8284352754682301
1667080673113573600,23.77757373046875,-2.4200106396734715,0.863361627420783,0.005011982943117619
1667080673133515500,23.797515625,-2.471983403494954,1.489826469823718,0.6469166788011789
1667080673153457400,23.81745751953125,-1.5814719033420086,1.34118138423264,1.1472244540140033
1667080673173399600,23.837399658203125,-0.936029681007564,0.4315478349804878,1.4872364533305167
1667080673193341400,23.857341552734376,-0.7732157848104834,0.2895820810228586,2.2955717745780944
1667080673213283600,23.87728369140625,-0.8467813717588781,0.3999801458060741,3.3165091052815314
1667080673233225500,23.8972255859375,-1.3119501751817761,0.7083183652251959,4.8227352135032415
1667080673253167400,23.91716748046875,-1.6428864492475985,0.9747218152344226,5.953717265507579
1667080673273109500,23.937109619140625,-1.4996423459172248,0.8298585862696171,6.7594824440062045
1667080673293051400,23.957051513671875,-0.8449810443386435,0.6975169852256774,7.147266540583968
1667080673312992500,23.976992431640625,-0.1964703743442893,0.5843652378201485,7.456577404427528
1667080673332934400,23.996934326171875,0.42292058414965866,0.6544774694442749,7.992901372656226
1667080673352876500,24.01687646484375,0.7437900761008263,1.02543610342741,8.377802022752165
1667080673372818400,24.036818359375,0.32049189081043006,1.3617793511033058,8.472792090523242
1667080673392760600,24.056760498046874,-0.30112931095361706,1.6974737794816492,8.24793470286727
1667080673412702500,24.076702392578124,-0.5472853610955178,1.5377175172895192,7.6244105900913475
1667080673432644600,24.09664453125,-0.5181529362440109,1.1947703413039445,6.678893242031336
1667080673452586500,24.11658642578125,-0.3522936810016632,0.8716448871195316,6.046347618409991
1667080673472528400,24.1365283203125,-0.17107304436787962,0.8517144442468881,5.913438446611166
1667080673492470500,24.156470458984376,-0.5219973367124796,1.2542448590576647,5.51780655914247
1667080673512412700,24.17641259765625,-1.4973083500117064,1.402977038410306,4.69523608405441
1667080673532354600,24.1963544921875,-2.3673672831140458,1.13660924423635,3.5542040549397464
1667080673552296400,24.21629638671875,-1.8450924446344374,0.7166185760587453,2.52452841424644
1667080673572238300,24.23623828125,-0.9801716050729155,-0.5287888965487479,0.9521279983714223
1667080673592180500,24.256180419921876,-0.2807902872800827,-0.5037912334144116,-0.1620794444426894
1667080673612122600,24.27612255859375,-1.4216405300870536,1.3476789295583962,0.4719446907659992
1667080673632064300,24.296064208984376,-1.8212319688364862,2.880952911442518,-0.12791242295745758
1667080673652006400,24.31600634765625,-1.0476581643685698,2.594258368554711,-1.5336305402368307
1667080673671948500,24.335948486328125,-1.4822233013436197,0.6988450189590454,-4.717995028351247
1667080673691890400,24.355890380859375,-1.227742636579275,-0.8549708156943321,-6.864945390474796
1667080673711832300,24.375832275390625,-1.1936033433511852,-0.4444359581261873,-7.254142276459932
1667080673731774200,24.395774169921875,-0.936738413798809,0.3070096011638641,-6.294053382211923
1667080673751716400,24.41571630859375,-1.7667472221940754,1.0117360793769359,-6.252369957214594
1667080673771658500,24.435658447265624,-2.668452608795464,0.044615971317887304,-8.355669685921072
1667080673791600400,24.455600341796874,-1.6192083442792296,-1.88261173568964,-9.84441595929265
1667080673811542300,24.475542236328124,-0.35780893729180097,-1.5200778157025574,-8.918667141541839
1667080673831484400,24.495484375,-1.220719021552801,-0.08507248486876487,-7.305689508345723
1667080673851426300,24.51542626953125,-1.938735189449787,0.512639725780487,-6.611120267009735
1667080673871368400,24.535368408203126,-0.38564679228812454,-0.29298224485516544,-6.674176734903455
1667080673891310300,24.555310302734377,0.7066293892249464,-1.0760668049901723,-6.656899436888098
1667080673911252200,24.575252197265623,0.14906038839370012,-1.0175438888728618,-6.355308353641629
1667080673931194400,24.5951943359375,-0.6862646465882658,-0.2583136670559645,-5.371507159894705
1667080673951136300,24.61513623046875,-1.0228054626628755,0.28288462921082974,-4.08418625292629
1667080673971078400,24.635078369140626,-1.562213076120615,0.6870259863495827,-3.633033553765714
1667080673991020500,24.6550205078125,-2.1616560560852287,0.7179793430179358,-3.9124604437381025
1667080674010962200,24.674962158203126,-1.9664649078965186,0.8351596152871846,-3.3463992166325447
1667080674030904300,24.694904296875,-0.9154714616253972,1.4042752615272998,-2.0826751660898326
1667080674050846500,24.714846435546875,-0.5414215836286544,1.7955080372542143,-0.7865043054506182
1667080674070788400,24.734788330078125,-0.9477294711515307,1.3921370799660682,-0.13164892433835193
1667080674090730500,24.75473046875,-1.3635457762539387,0.734674457231164,0.5208934671238065
1667080674110672400,24.77467236328125,-1.2081643681451677,0.7918810300529002,1.1413567310243844
1667080674130614300,24.7946142578125,-1.0722177283465861,0.0360761065095663,1.743049243481457
1667080674150556400,24.814556396484374,-0.88763097628057,-0.12309329570531845,2.191137878896296
1667080674170498300,24.834498291015624,-1.3872802875846624,-0.4968120420515537,2.5574670995131132
1667080674190440400,24.8544404296875,-1.8574467531643806,-0.4879243867188692,2.8616721646502614
1667080674210382300,24.87438232421875,-1.9489809813931582,-0.18840192644000053,3.572752395804226
1667080674230324200,24.89432421875,-1.5589876843333244,0.148182144254446,4.506305165304243
1667080674250266400,24.914266357421877,-0.6239902689829468,0.48799979004263877,5.514666507551074
1667080674270208300,24.934208251953127,0.18979089658036827,0.5719681130617856,6.095825642806291
1667080674290150400,24.954150390625,0.4242087242640555,0.4939496383577585,6.6704726196885105
1667080674310092500,24.974092529296875,-0.234416366378963,0.6159083770751953,7.071703057816624
1667080674330034200,24.9940341796875,-0.4605089949183166,0.5570610513091087,7.285419458255172
1667080674349975300,25.013975341796876,-0.27880744289979337,0.1624485700160265,7.340466222694515
