time,seconds_elapsed,z,y,x
1667080681668455700,0.02345556640625,0.19243805008828638,-0.044054245781898496,0.10709230123609303
1667080681688397600,0.0433974609375,-0.3873801919519901,-0.18576164106428622,-0.009088730862736701
1667080681708339500,0.06333935546875,-0.2858130838781595,-0.2051999165058136,-0.15602818157970905
1667080681728281600,0.083281494140625,-0.44576691446900363,-0.08652794437408447,-0.1788417786732316
1667080681748223500,0.103223388671875,-0.26849077767729757,0.15903788478970526,-0.4933399820268154
1667080681768165600,0.12316552734375,-0.42316696012616156,1.498166428145766,-1.6860206575751304
1667080681788107500,0.143107421875,-0.044669162809848784,0.9380354678720235,-2.8332269914105535
1667080681808049400,0.16304931640625,1.261801265786588,1.4622721079438923,-2.8409517404437064
1667080681827991600,0.182991455078125,2.944683917596936,1.491939516454935,-2.5349188753575085
1667080681847932700,0.2029326171875,3.3629256962805982,0.9111848703473806,-2.0489991064593194
1667080681867874600,0.22287451171875,2.306089661461115,-0.9441945750236511,1.1350719516664742
1667080681887816400,0.24281640625,-4.1894712124794715,-5.591183930042385,12.91758772511482
1667080681907758600,0.262758544921875,1.7349164981693028,0.3917588454276323,1.8492901885852218
1667080681927700500,0.282700439453125,0.9371323815524577,1.4397212534397839,-1.331819389386475
1667080681947642600,0.302642578125,-0.33935996514856814,0.7136778464317322,0.7820841509208083
1667080681967584500,0.32258447265625,-2.6499977914333344,-1.2138725166589022,-1.9291256495833395
1667080681987526400,0.3425263671875,-4.23667895385623,-3.3591187052130698,-3.7830586955383416
1667080682007468500,0.362468505859375,-4.619388815909624,-2.584870362484455,-2.8078046731233597
1667080682027410400,0.382410400390625,-8.199142322647571,-3.787109139972925,-3.810751296845078
1667080682047352600,0.4023525390625,-7.3761717423260205,-7.259225278812647,-6.235901052972674
1667080682067294700,0.422294677734375,-7.258643095010519,-7.960345256966352,-7.755846766728162
1667080682087235300,0.4422353515625,-6.2540188934654,-7.126120876702666,-6.246563901284337
1667080682107177500,0.462177490234375,-4.052431809008121,-4.905104869154095,-4.758299566210806
1667080682127119600,0.48211962890625,-3.1780028441280126,-2.0636054316997527,-3.3890316129177807
1667080682147061500,0.5020615234375,-2.3948311902314425,0.692008450937271,-2.301950954221189
1667080682167003600,0.522003662109375,-0.719224666903913,3.2572529064536093,-0.6767629510104656
1667080682186945500,0.541945556640625,0.4889597211159765,5.508375298452377,0.5878007652267814
1667080682206887400,0.561887451171875,0.9839632524408399,7.373738962221145,1.868372197934985
1667080682226829600,0.58182958984375,0.48137898366339504,8.554513511398435,2.532290280419588
1667080682246771500,0.601771484375,0.1676069756925106,9.694000941419601,2.608679692617059
1667080682266713600,0.621713623046875,1.5850234583437441,10.199022008889912,2.599997496728599
1667080682286655500,0.641655517578125,3.7406910876691337,10.581964510655402,2.474413553251326
1667080682306597400,0.661597412109375,4.695924943101406,10.529424176079035,2.2976991419956088
1667080682326539500,0.68153955078125,3.076288436537981,10.254684859400987,0.741244775532186
1667080682346480600,0.701480712890625,1.1225299385447054,10.201628976517915,0.2402951952844858
1667080682366422500,0.721422607421875,0.9734265147268771,10.505712461102009,0.5052925778880715
1667080682386364400,0.741364501953125,1.0299041156869382,9.9913963265419,-0.30077859781980515
1667080682406306600,0.761306640625,1.5625439155101775,8.752281816598773,-1.4573688460722565
1667080682426248400,0.78124853515625,1.5285165582239626,7.883534989008307,-1.4307669626116752
1667080682446190600,0.801190673828125,-0.17852935172319412,7.519420521831512,-1.3439441269442438
1667080682466132700,0.8211328125,-1.3140724280327558,6.458966881036758,-0.7152766599304974
1667080682486074400,0.841074462890625,-2.571393625795841,4.16899774877131,-1.625082497009635
1667080682506016500,0.8610166015625,-2.4983944405585525,2.231537401562929,-1.3152467325091362
1667080682525958700,0.880958740234375,-0.25853870798349377,-1.0290145464360714,-2.902920997622609
1667080682545900500,0.900900634765625,2.3631261384129525,-5.5351873175323005,-3.618934009003639
1667080682565842700,0.9208427734375,0.34161008216291666,-7.317051444837451,-3.0021771984055636
1667080682585783600,0.940783447265625,-3.486265075701475,-7.184924363327026,-1.680207879643142
1667080682605725400,0.960725341796875,-5.076121361029148,-10.046390484011173,-0.4442322522476315
1667080682625667600,0.98066748046875,-5.577722975444793,-14.16666073449254,0.3457061923701316
1667080682645610000,1.00060986328125,-6.380600615808367,-14.85615223417282,-0.6558183626592159
1667080682665552100,1.02055224609375,-5.951647473496198,-15.193821177494526,-5.047950913077592
1667080682685494000,1.040493896484375,-5.34829579565525,-14.249499176698922,-7.196009820964932
1667080682705436000,1.060435791015625,-3.5175323206245896,-12.123054134726523,-6.830030728960037
1667080682725378000,1.0803779296875,-0.7047133264705538,-9.598073885059357,-5.567666860854626
1667080682745320200,1.1003203125,0.6126484984964132,-7.512590383550524,-4.042168773669005
1667080682765262000,1.120261962890625,-0.22063976996093987,-4.82982487950325,-2.9680136475190517
1667080682785203000,1.140202880859375,-1.8958770215846596,-2.111194281348586,-2.2565336033925414
1667080682805145000,1.16014501953125,-2.4657418787568806,0.1731307075500488,-1.9374042331069707
1667080682825087000,1.1800869140625,-1.738455778211355,1.3088169917225836,-0.8663964650720357
1667080682845029000,1.200029052734375,-0.9445289215445518,2.3619021495759487,-0.05060205999016761
1667080682864971000,1.219970947265625,-0.8183961120128631,3.243646990427375,-0.2621327869527042
1667080682884913000,1.239912841796875,-1.3102595917463302,3.938486280876398,-0.8727008259132504
1667080682904855000,1.25985498046875,-2.1417326274752617,4.421822755283117,-1.2750237354531884
1667080682924797200,1.279797119140625,-1.5297896468997,5.121749139738083,-0.801232503505051
1667080682944739000,1.299739013671875,-0.08312829199843108,5.6171361174225805,-0.1122396009966731
1667080682964681000,1.319680908203125,0.8398666969995945,6.545418253043294,0.606811462906003
1667080682984622800,1.339622802734375,0.8509212480425834,7.471147197049856,0.9371493326872586
1667080683004565000,1.35956494140625,-0.4468365895271301,7.893659492659569,0.4556903425902128
1667080683024506000,1.379506103515625,-2.0691396849513053,8.450735741537809,0.04654255546629429
1667080683044448300,1.3994482421875,-1.2335562912940978,8.745537018513678,-0.8807111138895154
1667080683064390000,1.419389892578125,0.23407997403144834,8.745316069239378,-1.0519520621702074
1667080683084332000,1.43933203125,1.255486383551359,8.675662687298654,-1.256286301757395
1667080683104274000,1.45927392578125,1.666110672968626,8.923798659211396,-1.063040442417562
1667080683124216000,1.479216064453125,1.826150428277254,9.150662710514665,-0.9279322992697357
1667080683144158200,1.499158203125,2.0193992102265357,9.35296865914464,0.017988953416049478
1667080683164099800,1.519099853515625,2.2134143003731963,9.740818806695938,0.43736762717515226
1667080683184042000,1.5390419921875,2.009042066863179,8.898636160904168,-0.36939240757972
1667080683203984100,1.558984130859375,-0.09925824660956858,6.810369750678539,-1.852721039816737
1667080683223926000,1.578926025390625,-3.1459751362264154,4.332504303407669,-2.7487176933825013
1667080683243867000,1.598866943359375,-5.299587586587667,3.3852363122880456,-0.9285640213020145
1667080683263809000,1.61880908203125,-3.711186468504369,1.4316823238909244,0.10016827412657439
1667080683283751000,1.6387509765625,-1.5723732356071471,-3.2553549638777968,-0.7370835641995072
1667080683303693000,1.658693115234375,-1.4344938741803168,-7.424802209982276,-1.7481003893911837
1667080683323635200,1.67863525390625,-4.707238072015345,-9.674396661761403,-2.5506968747258183
1667080683343576800,1.698576904296875,-5.097967282134294,-10.694290913152694,-2.945437074051797
1667080683363519000,1.71851904296875,-5.40717468560338,-11.160075364255905,-1.6610402378365396
1667080683383461000,1.738461181640625,-7.6940084424525494,-12.186874572730064,-2.8560668919891117
1667080683403403000,1.758403076171875,-9.148592333981394,-12.862654357922077,-5.0227533434569835
1667080683423345200,1.77834521484375,-5.99860503950417,-12.244108618080615,-4.917628250640631
1667080683443286000,1.7982861328125,-3.1092139700621364,-10.725604919826983,-3.529656181399524
1667080683463228000,1.818227783203125,-2.187284418338537,-9.241395120841265,-3.3552190674260256
1667080683483170000,1.838170166015625,-1.7978870413452386,-7.804663696867227,-3.684013214896619
1667080683503112200,1.8581123046875,-1.3025669914171099,-6.533841212496161,-2.8016707004129886
1667080683523054000,1.87805419921875,-1.2899874958291648,-4.969163792088628,-1.3769006401285528
1667080683542996000,1.897995849609375,-1.8635396632120012,-3.1997312763333317,-0.23835549592617897
1667080683562937900,1.917937744140625,-2.333931608110666,-1.5757564483046531,0.3090118808969855
1667080683582880000,1.9378798828125,-2.361324934209883,-0.19800737465322016,0.30293380309231577
1667080683602822100,1.957822265625,-1.7566764945566653,0.952820364549756,0.5452151306927204
1667080683622764000,1.977763916015625,-1.1168160909425466,1.7561685450345277,0.3510541292693466
1667080683642704400,1.997704345703125,-1.1351906096100806,2.1174732154875993,-0.1700366870574653
1667080683662646500,2.017646484375,-1.0663315929174422,2.8112995295017957,-1.0373979055084288
1667080683682588700,2.037588623046875,-1.046494089025259,3.749133337321877,-0.860922125314176
1667080683702530600,2.057530517578125,-0.9229319336991757,4.613504434046149,-0.3987020886942744
1667080683722472700,2.07747265625,-0.27634207569956776,5.210493591117858,-0.20003069717437028
1667080683742414600,2.09741455078125,0.5320132654227316,6.159755970925092,-0.05988368307650089
1667080683762356500,2.1173564453125,0.6288075330715626,6.768467129972577,-0.41312589697465296
1667080683782298600,2.137298583984375,0.37384500307440754,7.044192535078525,-0.6944973451435565
1667080683802240500,2.157240478515625,-0.022571897292137145,7.0250617181509725,-0.48349078818559643
1667080683822182700,2.1771826171875,-0.31491248324289917,7.745037787944078,-0.6517196951687335
1667080683842124500,2.19712451171875,-0.4576126889549195,8.220952003395556,-0.5882081769838928
1667080683862065700,2.217065673828125,0.010313231156393885,8.579224174284935,-0.5965571953952312
1667080683882007600,2.237007568359375,0.5054955531142652,8.247359533327817,-0.9188096661373972
1667080683901949700,2.25694970703125,-0.11179105351157485,7.810552754905819,-0.48837695279195903
1667080683921891300,2.276891357421875,-1.2271920169591903,8.059021319773793,0.25085399869978425
1667080683941833500,2.29683349609375,-0.898117883503437,7.763661239871382,0.33437267825528977
1667080683961775600,2.316775634765625,-0.2448223173201084,7.376853294849395,0.19200375032424927
1667080683981717500,2.336717529296875,-0.8147592168152332,6.552675092303753,0.6983882151022553
1667080684001659600,2.35665966796875,-1.406888074374199,5.195549704486131,0.3031074791587889
1667080684021601800,2.376601806640625,-1.8951327790886163,4.088558184400201,0.30623591337762773
1667080684041543400,2.39654345703125,-1.5315367828279733,3.4795927583307025,1.0781327245440333
1667080684061484500,2.416484619140625,-1.34722417152822,2.0072697964936492,-0.28218941348828375
1667080684081426700,2.4364267578125,-0.46675008126497264,-0.9300041371077299,-0.7587269484698772
1667080684101368600,2.45636865234375,1.1574037565924227,-2.100102978491783,1.751637623606622
1667080684121310500,2.476310546875,-1.9851222620934246,-3.300534414297342,1.889502664247155
1667080684141252600,2.496252685546875,-5.592345959559083,-6.372281700274348,-0.8581050220668316
1667080684161194500,2.516194580078125,-5.744522141885757,-9.244417099010944,-2.7226369111865756
1667080684181136600,2.53613671875,-4.305186672893166,-10.718595333325862,-1.7704849474176763
1667080684201078500,2.55607861328125,-5.660838481026888,-11.225326711845398,-2.7822505451500414
1667080684221020400,2.5760205078125,-6.133939977145195,-12.245171278876066,-3.909248495954275
1667080684240962600,2.595962646484375,-4.109775744473934,-12.430557072365284,-4.042945895521343
1667080684260903700,2.615903564453125,-1.9193430912375449,-11.818249350130557,-4.584021149930358
1667080684280845600,2.635845458984375,-0.7024503499746322,-10.493651436430214,-4.467447611382603
1667080684300787700,2.65578759765625,-1.0874340021789073,-8.557070794665814,-3.8075536698475476
1667080684320729600,2.6757294921875,-1.4198077617019413,-7.06613548681736,-2.7788991888955232
1667080684340671500,2.69567138671875,-1.6827195702031255,-5.931926289460063,-1.9499395972922444
1667080684360613600,2.715613525390625,-2.11698630875349,-4.467228415673971,-0.9927493470951915
1667080684380555500,2.735555419921875,-2.568799517649412,-3.2824025452792642,-0.7542305138334632
1667080684400497700,2.75549755859375,-2.4773159966945646,-2.5576959398329255,-0.9241860984787345
1667080684420439600,2.775439453125,-2.5654116287767885,-1.3558645741015671,-1.0772791764546186
1667080684440381400,2.79538134765625,-2.205399920743704,0.4233610213935375,-0.6817920312188566
1667080684460322600,2.815322509765625,-1.4360288286626337,1.9886299779534338,-0.25503493764623997
1667080684480264700,2.8352646484375,-0.9626632017154246,3.220162069943547,0.5346059122644364
1667080684500206600,2.85520654296875,-0.8466869714736938,4.400811531436443,0.5634402309522032
1667080684520148500,2.8751484375,-0.8173708606183528,5.211501306855678,-0.4029243825644254
1667080684540090600,2.895090576171875,-1.2519872893892228,5.175518139326572,-0.9946712550684809
1667080684560032500,2.915032470703125,-0.7884777974806726,5.45864885225296,-0.5093012290075422
1667080684579974700,2.934974609375,0.2649937293417752,6.300265680855512,-0.3757955526202917
1667080684599916500,2.95491650390625,1.0470844561338424,6.953890332862734,-0.18885726899206637
1667080684619858400,2.9748583984375,0.9948694079890846,7.735916908377408,0.023898469720780847
1667080684639799600,2.994799560546875,0.7085811078146099,8.247413309341669,-0.2393143675535917
1667080684659741700,3.01474169921875,0.25501988620758054,7.849048782038688,-0.4595674762845039
1667080684679683600,3.03468359375,-0.2592784204348922,8.280486726903915,-0.3990793975740671
1667080684699625700,3.054625732421875,-0.15108955613374708,9.384818087869881,-0.026155016475915907
1667080684719567600,3.074567626953125,-0.33598683545365926,9.596572248324751,0.7443009482324123
1667080684739509500,3.094509521484375,-0.335404505521059,9.26055633290708,0.7842793228775262
1667080684759451600,3.11445166015625,0.0936402605973184,8.989563801541925,-0.01082066922187805
1667080684779393800,3.134393798828125,0.9150481947120278,8.43633429121971,-0.8244571656174957
1667080684799335700,3.154335693359375,0.11156535499691962,7.221467502826452,-1.0454486716255544
1667080684819277800,3.17427783203125,-1.7033984933555124,7.497407427465915,0.07910933868065476
1667080684839218700,3.19421875,-2.3830904835551974,8.034301304537058,-0.2329050850331783
1667080684859160600,3.21416064453125,-3.0389328116118905,6.959805694386363,0.4234210810177028
1667080684879102700,3.234102783203125,-3.1044916177153588,3.4912212368041273,-0.4324907418537885
1667080684899044900,3.254044921875,-1.0879681090556084,1.6522832231462001,0.5861871194850653
1667080684918986500,3.273986572265625,0.9514940843820572,-0.472650245219469,0.5837514898359775
1667080684938928600,3.2939287109375,-3.125300596988201,-3.21346169552207,-1.9721718873664735
1667080684958870500,3.31387060546875,-9.559801145288347,-7.044065109306573,-5.0524879719853395
1667080684978812700,3.333812744140625,-8.303544361886381,-10.561077205449342,-6.486902935710549
1667080684998754800,3.3537548828125,-4.180185790000856,-13.38481243815422,-3.412610641425848
1667080685018696400,3.373696533203125,-5.998691548743843,-14.55805074660778,-3.5303099691331385
1667080685038637600,3.393637451171875,-7.719667199844121,-15.958934612131118,-5.930461477604508
1667080685058579700,3.413579833984375,-4.1895533378049725,-16.27767673666477,-6.701852092814445
1667080685078521900,3.43352197265625,-0.7929656104192138,-14.437605335062742,-4.08622769562602
1667080685098463500,3.45346337890625,-1.5529729540884494,-11.85002629814148,-3.800251237879693
1667080685118405600,3.473405517578125,-3.1107024550542235,-9.608931379160284,-4.232566842362284
1667080685138347500,3.493347412109375,-3.6321056252658366,-7.067958026069403,-4.095085832603275
1667080685158289700,3.51328955078125,-3.0741221984148024,-4.631841470247507,-2.8986975347086785
1667080685178231800,3.533231689453125,-2.645223416638374,-2.393431260305643,-2.0580060042575
1667080685198173700,3.553173583984375,-1.99505270447731,-0.43213644852340216,-1.24875210686028
1667080685218114600,3.573114501953125,-1.3422978210419416,1.3733353488624096,-0.1685406763460487
1667080685238056700,3.593056640625,-0.6729974609971046,2.7052403707057238,0.21810813259147108
1667080685257998600,3.61299853515625,-0.13665654163360594,3.608075930380821,0.44453415780365463
1667080685277940700,3.632940673828125,0.40675694646462796,4.1215836711674925,0.5914331303797662
1667080685297882600,3.652882568359375,1.1507128806516527,4.543157809144258,0.6045451254092157
1667080685317824500,3.672824462890625,1.3946341574788093,4.83431926831305,0.0936786929115653
1667080685337766700,3.6927666015625,2.1040824035167693,4.597574458986521,0.3969225118011236
1667080685357708800,3.712708740234375,2.725508667230606,5.4293987923711535,0.6519657788842916
1667080685377650700,3.732650634765625,2.0934286152943966,6.349457874047756,0.6710156395301222
1667080685397591600,3.752591552734375,0.7451742239356041,7.07128278657794,0.20840485002696513
1667080685417533700,3.77253369140625,-0.39924510952979325,7.422744108408689,-0.33586773911863566
1667080685437475600,3.7924755859375,-0.608915157186985,7.665411878043413,-0.32915275164991614
1667080685457417700,3.812417724609375,-0.2938261483334005,8.235652728921174,-0.3644432607397437
1667080685477359900,3.83235986328125,-0.6156513335742057,9.134179777747391,-0.23788813414275645
1667080685497301500,3.852301513671875,-1.4132371511399746,9.94714217427373,-0.47449821117371316
1667080685517243600,3.87224365234375,-2.8536054703116416,10.311370623219013,-0.553539306923747
1667080685537185800,3.892185791015625,-3.6379356465935704,10.208045857822894,-0.8306003445476293
1667080685557127700,3.912127685546875,-3.428506129693985,9.67608125384748,-0.7969206316553056
1667080685577069800,3.93206982421875,-2.539471716356277,8.786109267398714,-0.6348194137722254
1667080685597009700,3.952009765625,-2.3991151511609554,7.570702380779385,-0.6234585001938044
1667080685616951800,3.971951904296875,-2.66664146772027,6.387784389832616,-1.2670870972350239
1667080685636893700,3.991893798828125,-2.9635142902731895,4.435454390272498,-1.4060460705921054
1667080685656835600,4.011835693359375,-1.5512491990357637,2.0455998194098473,0.21847850027382373
1667080685676777700,4.03177783203125,-0.6352706646710634,-1.3382196118175982,1.4389464696750045
1667080685696719600,4.0517197265625,-1.7372833734311162,-3.688302728784084,-0.0014469862212077714
1667080685716661800,4.071661865234375,-3.135003952617943,-7.515888840574026,-3.160664463575184
1667080685736603600,4.091603759765625,-2.2339199127852916,-10.455795460766554,-4.7518870688199994
1667080685756544500,4.11154443359375,-3.6280984354510903,-11.98493862645626,-3.648024494409561
1667080685776486700,4.131486572265625,-4.870169749373197,-12.462713959604502,-2.378820551151037
1667080685796428800,4.1514287109375,-4.11481899933815,-13.955589880126714,-2.8337860865980384
1667080685816370700,4.17137060546875,-4.128831450338661,-14.927278026753664,-4.814450200238824
1667080685836312800,4.191312744140625,-5.040205998039245,-14.50263807146549,-6.603210516798496
1667080685856254500,4.21125439453125,-3.4990751651749012,-12.379072384321688,-5.998951660984754
1667080685876196600,4.231196533203125,-1.5417445808485148,-10.005230790627001,-4.445839882947504
1667080685896138800,4.251138671875,-1.4727885335221886,-7.473410465806722,-3.213201583281159
1667080685916079900,4.271079833984375,-2.432706747378409,-4.83993243201971,-2.1959841498836874
1667080685936021500,4.291021484375,-2.7919781584382055,-2.605073777079582,-1.2734773827940224
1667080685955963600,4.310963623046875,-2.297926959402114,-0.6858160260379313,-0.0634576691057533
1667080685975905500,4.330905517578125,-1.5993594422101973,1.2907266237586736,0.8237196451231836
1667080685995847700,4.35084765625,-1.1076526143431662,2.6463451141446828,1.2348663509793578
1667080686015789800,4.370789794921875,-0.03169979112148285,3.658860361200571,1.6993007026478648
1667080686035731500,4.3907314453125,0.5813921402934938,4.346944332170486,0.9916830330379307
1667080686055673600,4.410673583984375,0.6787351278662681,4.826812253683805,0.48536242727637285
1667080686075615700,4.43061572265625,0.5062592309631407,5.002980721494555,0.2665302912592888
1667080686095557600,4.4505576171875,0.7778114420376717,5.362368160149455,0.15961480789482593
1667080686115499800,4.470499755859375,1.22280079626292,6.153073716682195,-0.16566490171402692
1667080686135441700,4.490441650390625,1.1581271024309099,6.753371852171421,-0.0077758946985006325
1667080686155383600,4.510383544921875,0.9429682480990886,7.470975932136177,-0.3365580594703555
1667080686175325700,4.53032568359375,0.2608111829601228,7.971194567760825,-0.03007540479004383
1667080686195267600,4.550267578125,-0.46964229557514187,8.668442088395357,0.12668693628311156
1667080686215209700,4.570209716796875,-1.0590192240774632,9.520210893177985,-0.017124445541203022
1667080686235152000,4.59015185546875,-1.1684078195571899,9.97752328401208,-0.0002966448590159416
1667080686255092700,4.6100927734375,-0.7778232786059379,9.608426936769485,0.4682137240767479
1667080686275034600,4.63003466796875,-0.4465677094578743,9.529717557191848,0.6423951097235083
1667080686294976800,4.649976806640625,-0.4250293199319392,9.521255433794856,0.029846126078814265
1667080686314918700,4.669918701171875,-0.9243862241607159,9.184757872340082,-0.6981772027000784
1667080686334860500,4.689860595703125,-1.8571826954007147,8.218762384396792,-0.8661249546542763
1667080686354802700,4.709802734375,-2.279811310866475,6.765450412499904,0.17019553088098763
1667080686374744600,4.72974462890625,-1.9132354220122099,6.123800860446691,0.9196750507950783
1667080686394686700,4.749686767578125,-1.18664724060297,4.806345219716429,0.46260815915465353
1667080686414628900,4.76962890625,-1.3607856638908384,1.5672715285539627,-1.2194032627791165
1667080686434569500,4.789569580078125,-1.730205251738429,-1.902186789253354,-0.44449557935893536
1667080686454511600,4.80951171875,-0.9607248540639877,-4.798812486124039,-0.7383782801851629
1667080686474453800,4.829453857421875,-1.7465177963748573,-7.724149898216128,-3.4465877298295498
1667080686494395600,4.849395751953125,-5.080640884280204,-9.43139162299633,-3.7629859215855594
1667080686514337500,4.869337646484375,-8.435209671103953,-11.340033287477493,-2.2036115760222077
1667080686534279700,4.88927978515625,-7.813208822372555,-14.154577497988939,-3.2464132402703165
1667080686554221600,4.9092216796875,-6.675178020900487,-16.12628089106083,-4.448016057942808
1667080686574163700,4.929163818359375,-6.79052464800179,-15.400031147825716,-4.175592616991699
1667080686594105600,4.949105712890625,-5.031460381525755,-13.019333112365006,-4.7515272955968975
1667080686614046500,4.96904638671875,-2.779090619814396,-10.762232230478524,-5.046635738825798
1667080686633988600,4.988988525390625,-1.9354343943387269,-8.88559840015471,-5.248438998630642
1667080686653930500,5.008930419921875,-1.778202974449098,-7.3823121447771785,-4.842534138950705
1667080686673872400,5.028872314453125,-1.6098925266623496,-5.2882040227860205,-3.6513635757043956
1667080686693814500,5.048814453125,-1.7593780086003243,-3.3725995335549115,-2.37369575548321
1667080686713756400,5.06875634765625,-2.436161125615984,-1.2159762109398842,-1.2581214082300662
1667080686733698300,5.0886982421875,-2.2751614392340183,0.6641232496678828,0.08499854284971951
1667080686753640400,5.108640380859375,-2.389859831559658,2.11877728382349,0.8861050088223069
1667080686773582300,5.128582275390625,-1.5447615905821321,3.7675720803320405,1.5239021962963044
1667080686793523200,5.148523193359375,-0.38088271969147025,4.945416421276331,1.9570583432562647
1667080686813465300,5.16846533203125,-0.018391396737098692,5.87706306489408,0.5878820137694478
1667080686833407500,5.188407470703125,-0.06512246051281691,5.837512560272216,0.39012612965926524
1667080686853349400,5.208349365234375,-0.10352247992530464,5.661867824074625,0.4397494077451527
1667080686873291500,5.22829150390625,0.5702770912349224,5.633111100667715,0.6002724165260791
1667080686893233400,5.2482333984375,1.1175029772281646,6.179365511280298,0.8339277354046701
1667080686913175300,5.26817529296875,1.3946312348693608,7.116591416335106,0.7317208681225776
1667080686933117400,5.288117431640625,1.0363432818889617,7.771227875733375,0.7935442870900035
1667080686953059300,5.308059326171875,0.36978009172305465,8.458135204139351,0.9211595902644097
1667080686973000200,5.328000244140625,-0.661636985810101,9.063364950811863,0.6366295319341123
1667080686992942300,5.3479423828125,-2.2012676432445644,9.43320071824491,0.3861620483338833
1667080687012884500,5.367884521484375,-3.279588656902313,9.561381107956171,0.44376127373501656
1667080687032826400,5.387826416015625,-2.6283985385656354,9.540863220584392,0.06674173227772116
1667080687052768500,5.4077685546875,-1.5604349605321883,8.95294233610928,-0.16797478609159588
1667080687072710400,5.42771044921875,-2.0221721820712086,8.449780048248172,-0.8372846446171403
1667080687092652300,5.44765234375,-3.0944097841620444,7.427596224614978,-1.221073899405077
1667080687112594400,5.467594482421875,-3.3369758469879627,5.341983543768525,-0.35901597499400373
1667080687132536300,5.487536376953125,-3.259614374887943,4.934225165176391,1.2759697841316462
1667080687152477400,5.5074775390625,-0.8066776171684265,3.6853871335983275,1.2807485428407788
1667080687172419300,5.52741943359375,2.0833751310527324,1.1388438714206217,0.9475611288473009
1667080687192361500,5.547361572265625,1.3116945929855108,-2.2184031947016716,1.9371207399904726
1667080687212303400,5.567303466796875,-1.6666911032050846,-3.747304368329048,0.5063642987728119
1667080687232245500,5.58724560546875,-2.341400921078026,-5.619003080338239,-1.8672072458088398
1667080687252187400,5.6071875,-0.7859829119250178,-7.544667775812744,-3.0349679996341465
1667080687272129300,5.62712939453125,-2.80412013939172,-7.822762248137593,-2.003547561100125
1667080687292071400,5.647071533203125,-6.225756675577164,-8.739760188677906,-2.7422572651967405
1667080687312013300,5.667013427734375,-5.599552529937029,-9.918126507669687,-2.0080232452094555
1667080687331954400,5.686954345703125,-3.898039704197645,-10.947683490419386,-1.331220838971436
1667080687351896300,5.706896240234375,-4.803554712215066,-11.137692852056025,-2.344368538711965
1667080687371838200,5.726838134765625,-4.964861126458644,-10.499473274451494,-3.68287398173362
1667080687391780400,5.7467802734375,-2.974058480641246,-9.52497825371027,-4.032540236841142
1667080687411722500,5.766722412109375,-1.2538128973811864,-8.328395894548297,-3.849806711426377
1667080687431664400,5.786664306640625,-0.7454600551396607,-6.710590695065259,-2.9409125823646782
1667080687451606500,5.8066064453125,-1.23906336427778,-5.362653991353511,-1.9855755588188766
1667080687471548400,5.82654833984375,-1.52548172057271,-4.025654861241579,-1.1341960456147788
1667080687491490300,5.846490234375,-2.2344961052380503,-3.0771044290959835,-0.6754051066607236
1667080687511431400,5.866431396484375,-1.9529262118875979,-1.8095464994788169,0.18661299719661473
1667080687531373600,5.88637353515625,-1.1568540137551724,-0.8293003678649663,0.9322422714233398
1667080687551315200,5.906315185546875,-0.7479941036619245,-0.1812275047659874,0.5375403582811356
1667080687571257300,5.92625732421875,-0.563164628881216,0.6094657768070697,0.14116437444686888
1667080687591199500,5.946199462890625,-0.57858080919981,1.6306781250596045,0.6272489785179496
1667080687611141400,5.966141357421875,-0.597900426697731,2.514944008821249,1.1357380143597722
1667080687631083500,5.98608349609375,-0.7353986798524856,3.3957641360431907,-0.1343968165406957
1667080687651026200,6.006026123046875,-0.7431950328171253,3.3998411762237546,-0.8467842943683266
1667080687670968300,6.02596826171875,-0.30218020824603736,3.994716117620468,-0.9811745715703815
1667080687690909400,6.045909423828125,0.39798334596566853,4.9138984164625406,-0.36814774128086863
1667080687710851000,6.06585107421875,0.6941267582654953,5.792862102162838,0.30298341438770293
1667080687730793200,6.085793212890625,0.5586532889366149,6.518246753001213,0.5054436767965554
1667080687750735400,6.1057353515625,-0.03453589133024215,6.984412312376499,0.06401946770697832
1667080687770677200,6.12567724609375,-1.0153846650123595,7.1166755874872205,-0.4311801707118749
1667080687790619400,6.145619384765625,-1.4506839614808558,7.0270876710206265,-0.8433201253890991
1667080687810561300,6.165561279296875,-1.459894857418537,7.333901457351446,-0.9381430198997258
1667080687830503200,6.185503173828125,-1.3503743061222135,7.716658081156015,-0.4404219001792371
1667080687850445300,6.2054453125,-1.0717698384486138,7.952204620608687,0.35849560438171024
1667080687870386400,6.225386474609375,-0.6536826658047735,8.090103271257878,0.598666004242748
1667080687890328000,6.245328125,-0.3427661203302443,8.376888999560475,0.20212277408279478
1667080687910270200,6.265270263671875,-0.5672246448617428,7.789713965016603,0.8843063619025051
1667080687930212400,6.28521240234375,-1.2207166834652423,6.969365549892187,0.7172539513528347
1667080687950154200,6.305154296875,-2.06707982981205,6.558795036488771,0.0906786343127489
1667080687970096400,6.325096435546875,-2.2817150986611843,6.299608093729615,-0.11545805158652364
1667080687990038300,6.345038330078125,-2.1414228308737275,4.430708657050133,-1.916998573938012
1667080688009980200,6.364980224609375,-1.100674592024088,1.5078823509961365,1.171132568345964
1667080688029922300,6.38492236328125,1.3696692275702953,0.347456177842617,4.388903943760693
1667080688049863400,6.404863525390625,2.049233207476139,-1.0506389337450266,2.8736989947915075
1667080688069805300,6.424805419921875,-2.5912662010014054,-3.9231004956960676,-2.0110949077397584
1667080688089747200,6.444747314453125,-6.812524882885813,-7.376710086986422,-3.3590181674480437
1667080688109689300,6.464689453125,-5.520758979207277,-9.891183555686473,-2.7295000749543306
1667080688129631200,6.48463134765625,-4.050713899174332,-11.673953107398749,-1.0679220769792794
1667080688149573400,6.504573486328125,-6.889771204173565,-12.793409556782246,-1.839388095512986
1667080688169515300,6.524515380859375,-7.578435020858049,-13.217171560192108,-3.0247593248307703
1667080688189457200,6.54445703125,-4.70647322512269,-12.317817997413872,-3.007586656233668
1667080688209399300,6.5643994140625,-2.467140347377956,-10.644190372943877,-3.038354134941101
1667080688229340400,6.58434033203125,-1.5197528215318918,-9.046365885215998,-3.5522386000856754
1667080688249282300,6.6042822265625,-0.4951911628514528,-7.524273807081579,-3.709123690755665
1667080688269224200,6.62422412109375,0.7870172234088182,-6.101650987958908,-2.968116523371637
1667080688289166300,6.644166259765625,1.2319384808339178,-4.758427868765592,-2.2309026107907295
1667080688309108200,6.664108154296875,0.7830990270517766,-3.4103877046793696,-1.3261392979234456
1667080688329050400,6.68405029296875,0.04881459205150604,-2.2902502872943877,-0.4304837128803134
1667080688348992300,6.7039921875,-0.4660621720660478,-1.2428665559530256,-0.2229302007193677
1667080688368934400,6.723934326171875,-0.8582931650500744,0.014518354696035385,-0.19643300147596746
1667080688388876300,6.743876220703125,-0.7569026556521654,1.305675771087408,0.4118298658147454
1667080688408817400,6.7638173828125,-0.5303156677246094,2.183058325076103,1.034765730373934
1667080688428759300,6.78375927734375,-0.16974753138516097,3.0812334917247295,1.2917290787994862
1667080688448701400,6.803701416015625,-0.27376316512227056,3.6761709769636393,0.7826452919349074
1667080688468643000,6.82364306640625,-0.6781752289611845,3.8833869094669815,-0.8560844029594212
1667080688488585200,6.843585205078125,-0.903646364601329,3.7464831150740383,-1.5922928648248313
1667080688508527400,6.86352734375,-0.4891466219902038,3.738993636101484,-0.8001613671422004
1667080688528469200,6.88346923828125,0.3823683551393449,4.420426332488656,-0.334772710423544
1667080688548411400,6.903411376953125,1.2775985543772577,5.469641955432295,-0.09140417210832237
1667080688568353300,6.923353271484375,1.4010899094894527,6.398100616663694,0.1589266795001924
1667080688588294100,6.943294189453125,0.8341270573690533,7.029447970411181,0.211196088180691
1667080688608236300,6.963236328125,-0.4699915474042296,7.161255902969836,0.027188305046409365
1667080688628178400,6.983178466796875,-0.7315197925925254,7.495395503121614,-0.4854743632182479
1667080688648119800,7.003119873046875,-1.4375706512771547,7.807053222352266,-0.313622151171416
1667080688668061700,7.023061767578125,-1.7241690403141081,7.775706482452153,0.18106573833301662
1667080688688003600,7.043003662109375,-1.2969209483541548,7.6531059386998415,0.48053646842464803
1667080688707945500,7.062945556640625,-0.7880559188067913,7.382654090082645,0.20992665276676414
1667080688727887600,7.0828876953125,-0.6652863020978868,7.055264548712969,0.4349206724144518
1667080688747829800,7.102829833984375,-1.66315649933815,6.999132911646366,-0.29978432608544825
1667080688767771000,7.12277099609375,-3.4200621264755724,6.702836427676678,-0.8537135091096162
1667080688787712500,7.14271240234375,-4.837393268930912,5.767663948020338,-1.9561177014052866
1667080688807654700,7.162654541015625,-4.4785856759905815,4.213350685238838,-1.6831763740599155
1667080688827596500,7.182596435546875,-2.653002818468213,2.566573073771596,0.33988197972867634
1667080688847538700,7.20253857421875,-1.8085808693170546,0.8511632401049136,1.3047490116313099
1667080688867480800,7.222480712890625,-1.3264767131842672,-0.8548848909765482,1.9496657487869262
1667080688887422500,7.24242236328125,-1.3029308562934399,-4.062548713874817,0.2749912456125021
1667080688907364600,7.262364501953125,-1.3182114275336265,-7.490403686183691,-1.6596753792241214
1667080688927305700,7.2823056640625,-1.6344097128033637,-7.961163587611913,-1.818015637138486
1667080688947247600,7.30224755859375,-2.8106755523845552,-6.967927041521668,-0.07479333864506334
1667080688967189500,7.322189453125,-2.466152213123441,-8.68717952209115,-1.0437535581454633
1667080688987131600,7.342131591796875,-1.4427739190086721,-10.709516539335251,-2.286528928683698
1667080689007073500,7.362073486328125,-0.24311551340222357,-12.099446464645862,-1.938459295117855
1667080689027015700,7.382015625,-0.633932401804626,-12.214868495070933,-1.6224275985866785
1667080689046957800,7.401957763671875,-1.6539426807910202,-11.491375357067584,-1.7641317789986728
1667080689066899500,7.4218994140625,-3.4670787291944025,-10.09538861593604,-2.551551737989485
1667080689086841600,7.441841552734375,-4.399704446977377,-8.785657431977986,-4.062987105292081
1667080689106782700,7.46178271484375,-2.787232717476785,-7.238655368992686,-3.4353511732831596
1667080689126724600,7.481724609375,-1.3990999047160149,-5.541994074937701,-2.0658070333972574
1667080689146666800,7.501666748046875,-1.933714438678324,-4.313120388501883,-1.736089341340959
1667080689166608600,7.521608642578125,-2.780695716923475,-2.479403908884525,-0.9252215790063142
1667080689186550500,7.541550537109375,-3.1919960059061645,-0.4168681522428989,-1.046034216428548
1667080689206492700,7.56149267578125,-3.526511745893955,0.867636236000061,-1.797989040414989
1667080689226434800,7.581434814453125,-3.27508082408905,2.0850679064452646,-1.7661767288297414
1667080689246376700,7.601376708984375,-2.4445745875656604,3.2998452629894017,-0.9674361882708966
1667080689266318600,7.621318603515625,-1.4329834696173667,4.218347178351879,0.11190671578049659
1667080689286259700,7.641259765625,-0.47184711214303965,4.8080081844925875,0.9567340308621525
1667080689306201600,7.66120166015625,-0.016767887188494205,5.425691170024871,0.9105969874568283
1667080689326143700,7.681143798828125,0.40819150931239123,5.911384436690807,0.405068116594851
1667080689346085600,7.701085693359375,0.5928241463467478,5.9024061804652215,0.0018570260435342787
1667080689366027500,7.721027587890625,0.8067547740578651,5.63295211071372,-0.17379238632917404
1667080689385969700,7.7409697265625,0.8039248113289474,5.766311948889493,-0.16544482922255993
1667080689405911800,7.760911865234375,0.5076549231052399,6.363477047049999,0.12514029136300087
1667080689425853700,7.780853759765625,0.31235651514977214,7.069637357458472,0.4546348421879112
1667080689445795600,7.800795654296875,0.14954729512780904,7.795780133187771,0.1543076413974166
1667080689465737500,7.820737548828125,-0.06058803195357322,8.202032198870182,-0.29879473052620886
1667080689485678600,7.8406787109375,-0.3085366646006703,8.215381509786845,-0.15713190503790975
1667080689505620700,7.860620849609375,-1.4361717442646622,8.431791387093067,0.4403568721190095
1667080689525563000,7.88056298828125,-2.5159867958724496,8.894034804588555,0.5605125069372355
1667080689545504500,7.90050439453125,-2.9049311684012413,9.218938374361395,0.4318522247545421
1667080689565446700,7.92044677734375,-3.7575253180921075,8.614082137176394,-0.10631269516572356
1667080689585388500,7.940388427734375,-5.033517898577451,6.492922926652431,-0.3750266871396452
1667080689605329700,7.96032958984375,-4.634994381320476,3.97572617046833,-0.28579847083091736
1667080689625271600,7.980271484375,-2.051961755657196,1.8983096555590628,0.6158221600964665
1667080689645213700,8.000213623046875,-0.649941579580307,-0.5997241349935531,0.8552382344588637
1667080689665155600,8.020155517578125,-0.6074438425254076,-3.2490731071293353,0.9765247730031609
1667080689685097700,8.04009765625,-0.553371549141407,-5.5578772882461545,0.05224222841262817
1667080689705038600,8.06003857421875,-0.4027938880525529,-7.698981554690003,-1.6397738701850175
1667080689724980500,8.07998046875,-1.0039096235349774,-9.38004605116248,-2.311874382342398
1667080689744922600,8.099922607421876,-3.4174133655324574,-10.691887359142303,-2.6735356111481785
1667080689764864800,8.11986474609375,-5.520308897352218,-11.758165176045894,-3.001491554228961
1667080689784806700,8.139806640625,-6.660336425599455,-12.748890031576156,-4.069944377084076
1667080689804748500,8.15974853515625,-5.999019465523958,-13.18769996651411,-6.492509669676423
1667080689824690700,8.179690673828125,-3.6903158221721646,-12.092429863882064,-6.766275757408142
1667080689844632600,8.199632568359375,-1.5390892440341413,-9.665767949625849,-5.420152240598202
1667080689864574700,8.21957470703125,-1.0221475832760334,-6.7161109197914595,-4.262720865346491
1667080689884515800,8.239515869140625,-0.9901536315135657,-3.967622943511605,-3.3391806635558603
1667080689904457500,8.25945751953125,-0.9261386938512325,-1.6523212170690298,-2.205205567215383
1667080689924399600,8.279399658203126,-0.5829401734530926,0.262693489575386,-1.2018337038189173
1667080689944341800,8.299341796875,-0.2691255319168791,1.9440052388072013,-0.46040261193439364
1667080689964283600,8.31928369140625,-0.10060206243395804,3.17067820032835,0.1405285607613623
1667080689984225800,8.339225830078124,0.29662849240303035,4.105408781436085,0.62053399104923
1667080690004167700,8.359167724609375,1.217024843209982,4.817127895015478,1.291430972635746
1667080690024109600,8.379109619140625,1.7255505578003822,5.1927761481195684,1.6171490736618637
1667080690044051700,8.3990517578125,1.8967371455453335,5.598567026031017,1.5069336719691753
1667080690063992800,8.418992919921875,2.3331644231304525,6.068082480356097,1.6342745421163736
1667080690083935700,8.438935791015625,2.851323496854305,6.525982315689325,2.1690615100361406
1667080690103877600,8.458877685546875,2.788101609265804,6.539179066392779,2.2090739330813287
1667080690123818800,8.47881884765625,2.1770962018013,6.691777858045697,1.408745392678678
1667080690143760600,8.4987607421875,1.619719362541288,7.203798575145005,0.441375986033678
1667080690163702800,8.518702880859376,0.9111877198915928,7.61112733014822,-0.35757936631962656
1667080690183644700,8.538644775390624,-0.4502992972016334,7.687966239678859,-0.6638865183025598
1667080690203586600,8.558586669921874,-2.682449862226844,7.9234794613838195,-0.7432128607347607
1667080690223528700,8.57852880859375,-4.307181061580777,8.563301798009872,-0.6913964565187692
1667080690243470600,8.598470703125,-5.4559471920788285,8.359130055508016,-1.9343970141150055
1667080690263412700,8.618412841796875,-5.64490675240159,7.620742130711674,-2.4085925890803335
1667080690283355000,8.63835498046875,-4.224105888009071,6.991650446936488,-1.382906018023193
1667080690303296500,8.658296630859375,-2.4862626887381074,6.56771191791594,-1.0650763321593404
1667080690323237600,8.678237548828125,-2.288969015312195,5.106558584868908,-0.9035665042981504
1667080690343179800,8.6981796875,-0.979983242893964,3.958548241174221,0.9365239673305302
1667080690363121700,8.71812158203125,0.680772917304188,2.5479741717636584,0.6450315226417035
1667080690383063600,8.7380634765625,1.9967329126492142,-1.5723896022200583,1.4235697445839643
1667080690403005700,8.758005615234374,0.8175567385792731,-5.733267172899842,1.3548156495705246
1667080690422947600,8.777947509765625,-2.639168646644056,-8.346678570213914,-2.1232968070745466
1667080690442889700,8.7978896484375,-2.461568976986408,-10.85588315860033,-4.079518261115253
1667080690462831600,8.81783154296875,-2.8912118551284074,-14.671280819946526,-5.430571927803754
1667080690482773500,8.8377734375,-3.28458310418874,-22.741219255053995,-8.669615223827957
1667080690502714600,8.857714599609375,-5.4077784967154265,-12.471569466233253,-4.696515310209989
1667080690522656800,8.87765673828125,-6.632227352446317,-12.992380808031559,-3.3821874461114403
1667080690542598700,8.8975986328125,-6.025459728682041,-10.879786596757173,-3.3832486456021664
1667080690562540800,8.917540771484376,-5.10774750239253,-9.079194972628354,-3.8807273348689075
1667080690582482700,8.937482666015624,-3.202389097365737,-6.808636058753729,-3.4878026605322954
1667080690602424600,8.957424560546874,-3.470084340751171,-4.174996696925163,-2.7583909461349245
1667080690622366700,8.97736669921875,-3.6148727509140968,-1.505802037590742,-1.8992285239696503
1667080690642308600,8.99730859375,-3.1708503420248624,0.9521230299353599,-1.1128041518874465
1667080690662250500,9.01725048828125,-2.101733648433536,2.723993586492538,-0.18384338635280728
1667080690682191600,9.037191650390625,-0.3240529442928731,3.9354672253161667,1.2098951374605298
1667080690702133800,9.0571337890625,0.23264088113903997,4.89778490152955,1.63013174322322
1667080690722075400,9.077075439453125,0.2040530845582485,5.814076739627122,1.0266700291365385
1667080690742017500,9.097017578125,0.4248012833297252,6.336639309006929,0.5386313683882356
1667080690761959700,9.116959716796876,0.9389921840749681,6.418946420815587,0.21429463871791957
1667080690781901600,9.136901611328126,1.4762170466661453,6.5121425909072155,0.21200053643137215
1667080690801843700,9.15684375,1.551222603289783,6.44881724294424,0.0001369242526590824
1667080690821785300,9.176785400390624,1.3433961376726626,6.375569635903835,0.07250877137184143
1667080690841727500,9.1967275390625,1.2825471166953444,7.003577031573653,0.012881255013495683
1667080690861668600,9.216668701171875,0.6175123051404953,8.646180572226642,-0.08163491163551807
1667080690881610800,9.23661083984375,-1.8354926955096422,9.910503173184395,0.8821789944849908
1667080690901552600,9.256552734375,-2.436418315247446,10.358130036306381,0.9591345161326229
1667080690921494500,9.27649462890625,-4.075256219756603,10.918085640013217,0.448635601773113
1667080690941436400,9.2964365234375,-4.922035545688868,10.208879386037587,0.4631447502493858
1667080690961378600,9.316378662109376,-3.9448450022533534,9.977103597295283,0.4790950374446809
1667080690981320700,9.33632080078125,-3.4240532419383523,9.391933472833037,-1.0855905662693082
1667080691001262600,9.3562626953125,-3.0286604239225388,6.741316088196635,-2.038640355660766
1667080691021204500,9.37620458984375,0.23765249875597655,4.195916150835156,-0.1550448696307838
1667080691041146600,9.396146728515625,3.432679615986347,2.558413732713461,0.6776169374912977
1667080691061087500,9.41608740234375,0.13047573410682378,-1.9740999328196047,-0.7564234938330948
1667080691081029600,9.436029541015625,-3.9037960757672785,-7.334442140099406,-1.5895307066351174
1667080691100971500,9.455971435546875,-2.1597043374955653,-10.592352633678912,-1.8847236132770775
1667080691120913400,9.475913330078125,-2.2198633303821085,-13.043047165429591,-1.4780048068657516
1667080691140855600,9.49585546875,-4.25057362369597,-14.40484054505825,-2.04853148894757
1667080691160797700,9.515797607421876,-4.494279796467721,-15.260716200637816,-2.8285809191703795
1667080691180739600,9.535739501953126,-3.9185517463505266,-15.304019920313358,-3.828518131943047
1667080691200681700,9.555681640625,-2.9485210115417835,-13.749091155982017,-4.14620665577054
1667080691220622600,9.57562255859375,-1.9858722036778926,-11.084318989264965,-3.2113547863706944
1667080691240564500,9.595564453125,-1.2764642896503209,-8.488696346619724,-2.3986185998156664
1667080691260506600,9.615506591796875,-1.0629136011675,-6.362576883339882,-1.6992893044710158
1667080691280448800,9.63544873046875,-1.3591383350752293,-4.710586505660414,-1.5328922890901564
1667080691300390400,9.655390380859375,-2.1920096932947635,-3.407476201146841,-1.7027967280700802
1667080691320332500,9.67533251953125,-2.7856653220295904,-2.145581119596958,-1.7218875052481888
1667080691340274700,9.695274658203125,-3.18235285603106,-1.004178795865178,-1.7198372947201133
1667080691360216600,9.715216552734375,-3.0602286976188418,0.7340151165395975,-1.1726612392179667
1667080691380158700,9.73515869140625,-2.4045757546544073,1.9015946685791014,-0.7981772075876593
1667080691400099600,9.755099609375,-1.4217840302109717,3.280276639166474,-0.3734437287971377
1667080691420041500,9.77504150390625,-0.9196587572474032,4.534507469698786,0.017414076137542724
1667080691439983600,9.794983642578124,-0.9178981042504311,5.080801627799868,0.08998276100307702
1667080691459925800,9.81492578125,-0.9802712660551071,5.864663602048158,-0.10890753396451473
1667080691479867400,9.834867431640625,-0.5920122454419732,6.535355708712339,-0.47876463644653555
1667080691499809500,9.8548095703125,-0.13018033135682344,7.010508876663446,-0.4510772958368063
1667080691519751400,9.87475146484375,0.409426604065299,7.448207050967216,-0.36750878579020496
1667080691539693600,9.894693603515625,0.8624223007440567,7.759364419460296,-0.40192426561117167
1667080691559635700,9.9146357421875,0.9221826497018337,8.55192817108035,-0.4599298798561096
1667080691579577600,9.93457763671875,-0.5342576833486556,9.560596679580211,-0.06970949604213238
1667080691599518500,9.9545185546875,-2.638985106770694,10.557310546392202,0.48849663364887236
1667080691619460600,9.974460693359376,-3.065185735504329,10.888089145678281,0.8480529991298913
1667080691639402800,9.99440283203125,-2.406532733941078,10.815014557117223,-0.011290040299296379
1667080691659344400,10.014344482421874,-1.6305099288858473,9.98790789990425,-1.2423593370832502
1667080691679286500,10.03428662109375,-1.2996166171789167,8.545528825432061,-0.7371979843594133
1667080691699228400,10.054228515625,-1.2315630716502666,7.4687038955509655,-0.48859585623964663
1667080691719170300,10.07417041015625,-2.465729603797197,6.435771883410215,-2.2865040865033865
1667080691739112400,10.094112548828125,-3.499109359705448,4.5275452294707295,-0.994818262323737
1667080691759054300,10.114054443359375,-2.0336837561666963,2.7522692483842373,0.36361937713623044
1667080691778995500,10.133995361328125,-0.79406363478899,-0.11235679763555526,0.20609481951892375
1667080691798937600,10.1539375,-2.01545544103682,-3.29126974234581,-1.599906554698944
1667080691818879500,10.17387939453125,-4.996991125690937,-6.960784768551588,-3.808981072302162
1667080691838821400,10.1938212890625,-4.006312739650905,-10.040084661865233,-3.6898710010141134
1667080691858763500,10.213763427734374,-1.4951792290285228,-12.569645225059986,-2.290988538441062
1667080691878705400,10.233705322265624,-3.5935634209036826,-13.276761228758096,-1.312337567064166
1667080691898647600,10.2536474609375,-5.125368499279022,-13.696089049112796,-1.1518184307407586
1667080691918589400,10.27358935546875,-4.490070362079143,-13.673224890875815,-2.4823037219792603
1667080691938530600,10.293530517578125,-3.4242639620795843,-12.87314535679817,-3.1274104287490245
1667080691958472400,10.313472412109375,-2.007169843250513,-10.734697742342949,-3.129174223551154
1667080691978414600,10.33341455078125,-1.1411384120985866,-9.07377703923285,-2.8391823926836253
1667080691998356200,10.353356201171875,-1.1053393689647317,-7.230171618285775,-2.2548878820121288
1667080692018298400,10.37329833984375,-1.0037512181028723,-5.389809124782681,-0.8992655191686004
1667080692038240500,10.393240478515626,-1.0937874628588558,-3.6364135515928266,0.3445578991178423
1667080692058182400,10.413182373046874,-1.068244879192859,-2.42667126660645,0.5913632434813305
1667080692078124500,10.43312451171875,-1.2541294159844516,-2.36391290487647,-1.1471639559984206
1667080692098066400,10.45306640625,-1.5898818581603467,-1.6160639087736606,-1.8151359900489448
1667080692118007300,10.47300732421875,-1.973140732398629,-0.06347966174185275,-1.2154384508013725
1667080692137949400,10.492949462890625,-2.4427725065797565,1.7252046669721601,-0.06220832663178444
1667080692157891600,10.5128916015625,-2.4325766912579536,3.3624463883310556,0.682263886514306
1667080692177833500,10.53283349609375,-1.8922925872266292,4.456351632350683,-0.14613164146542548
1667080692197775400,10.552775390625,-0.9697884504854678,4.795941314601898,-1.1291906385429202
1667080692217717500,10.572717529296876,-0.013920973324775696,5.4000896957784885,-1.2551517447695135
1667080692237659400,10.592659423828126,0.779041495289281,6.238907249051332,-1.0954701552487909
1667080692257601500,10.6126015625,1.06378073939085,7.015972987288237,-1.0123524577096104
1667080692277543400,10.63254345703125,0.588254646474123,7.853005995231866,-0.8463865272223949
1667080692297485300,10.6524853515625,-0.22297873430252074,8.382975041475891,-0.5716153541013598
1667080692317426400,10.672426513671875,-0.3189947841204703,8.761628906136751,-0.6541819936290383
1667080692337368600,10.69236865234375,-0.03389744729623198,8.87783887206912,-0.9053773531123995
1667080692357310500,10.712310546875,-0.10186119564957916,8.81592105281651,-0.5152167366616428
1667080692377252400,10.73225244140625,-0.756285985058546,8.934558538156747,0.23222031763941048
1667080692397194500,10.752194580078125,-0.9727660780567675,9.061552932953834,0.3672973349966109
1667080692417136400,10.772136474609376,-0.4196925620138645,8.316367018580436,0.04572276351600885
1667080692437078500,10.79207861328125,-0.24524786752210928,7.571286902669072,0.27795608676746486
1667080692457020400,10.8120205078125,-0.6188894387125968,7.155310730829835,-0.37726226417198777
1667080692476962300,10.83196240234375,-1.3219091130077838,5.748145593079924,-0.7534660322669893
1667080692496903400,10.8519033203125,-1.3915379450291394,4.322881904059648,-0.056258478316664695
1667080692516845600,10.871845458984374,-2.2911114341683683,3.487332997193932,-0.4473260535445064
1667080692536787500,10.891787353515625,-2.3405096713267266,2.07806416516304,-0.5718798867890611
1667080692556729600,10.9117294921875,-0.6764297735333442,-0.4902595516681671,-1.2613345250576733
1667080692576671500,10.93167138671875,-0.9649468556731938,-4.820606969302893,-1.1196890890955924
1667080692596613400,10.95161328125,-4.227157969056069,-8.25632609911561,-1.4159800201073287
1667080692616555500,10.971555419921875,-4.366739750486612,-10.007254405409098,-2.3638059373706577
1667080692636497400,10.991497314453126,-4.102561283050477,-10.983940214192867,-2.239319726002216
1667080692656439800,11.011439697265626,-6.112047294288874,-11.928210777062176,-1.313323947753012
1667080692676381000,11.031380859375,-7.07049835820198,-12.90184888871312,-0.6647019263386726
1667080692696322800,11.05132275390625,-5.695417626976966,-12.795609697175026,-1.4542296712636946
1667080692716264700,11.0712646484375,-4.032482953695952,-11.405431934583186,-1.8264236922606825
1667080692736206800,11.091206787109375,-2.682119315098226,-9.719202602693437,-1.9692329113051295
1667080692756148700,11.111148681640625,-0.7737693270400166,-8.078457841649652,-1.578830448922515
1667080692776091000,11.1310908203125,0.4670563707351684,-5.90608165410757,-0.8298711534902453
1667080692796033000,11.151032958984375,0.5047922271504998,-3.659139762663841,-0.18591032881997524
1667080692815974700,11.170974609375,0.15098317314982412,-2.16077693516314,0.6797489810839294
1667080692835915800,11.190915771484375,0.08976707242578268,-0.9725924019902944,1.345251117889583
1667080692855858000,11.21085791015625,-0.4921498954594135,0.02521978145241737,0.9010659196540712
1667080692875799800,11.2307998046875,-1.013709133015573,0.7525169879138469,0.10177439414896071
1667080692895741700,11.25074169921875,-0.6139955291911959,1.4959692103624342,-0.017399390025064347
1667080692915683800,11.270683837890624,0.36632235248461364,2.27819803045094,0.5177105262387544
1667080692935625700,11.290625732421875,1.1156535499691962,3.4789854400873184,0.11537556093484162
1667080692955567900,11.31056787109375,0.9988165381796658,3.893749898049235,-0.2827749948238954
1667080692975509800,11.330509765625,-0.4548053764492273,3.4102632015168663,-2.03011525003016
1667080692995452000,11.350451904296875,-0.4018682976402342,3.958761007142067,-1.6664698616698383
1667080693015392800,11.370392822265625,-0.1599871483385563,5.118910116919875,-0.469039653506875
1667080693035335000,11.3903349609375,-0.19971008691787717,6.136348207330704,0.06374328111410141
1667080693055276800,11.41027685546875,0.12657120094895363,6.409387734353542,0.07403261993825436
1667080693075219000,11.430218994140626,0.5056266321480274,6.501228982704878,-1.078827501875162
1667080693095160800,11.450160888671874,0.5510206021010875,6.305285554844141,-1.4794126278370618
1667080693115102700,11.470102783203124,0.4209925386965275,6.605833851039409,-1.4669152575746178
1667080693135044900,11.490044921875,0.0332055925745517,7.230906362301111,-0.710856724596396
1667080693154986800,11.50998681640625,-0.10875395083799957,7.558707407081127,0.09013751317337154
1667080693174929000,11.529928955078125,0.23742351230569184,7.604757795116305,0.48486726417057213
1667080693194869800,11.549869873046875,0.5928080719947815,6.910421193492412,0.2117240575775504
1667080693214812000,11.56981201171875,1.4480169342286884,5.499594610625505,-0.4259850132215768
1667080693234753800,11.58975390625,1.780854950262606,4.0329035171955825,-0.3687931265123188
1667080693254696000,11.609696044921876,1.0534557447314261,3.0761773773789405,0.9734890585690736
1667080693274637800,11.629637939453126,-1.1997720951139925,2.3322002542734146,0.20131430724412203
1667080693294579700,11.649579833984374,-1.0611799092426895,1.1571569422245025,-0.5503635629644618
1667080693314521900,11.66952197265625,-0.47375353028625244,0.3334399274498224,0.31573472287859766
1667080693334463700,11.689463623046874,-1.8336480905562638,-1.3572434612393378,0.8301596150428057
1667080693354406000,11.709406005859375,-1.8281001010403035,-3.304413886079192,-0.04544893327699974
1667080693374346800,11.7293466796875,-0.6695996352523564,-4.815197803735733,-0.11791969245970249
1667080693394289000,11.749288818359375,-2.9545827957987782,-6.109858844333886,0.5318883238688111
1667080693414230800,11.769230712890625,-6.406255281546712,-6.9599857271283865,0.9445414887651801
1667080693434173000,11.7891728515625,-6.5408595668256275,-8.172079543676972,0.5722872620135545
1667080693454114800,11.80911474609375,-5.668142666560411,-9.360383903837203,-0.6053796765372157
1667080693474056700,11.829056640625,-5.856544008478522,-9.739747378072142,-1.10454032754153
1667080693493998800,11.848998779296876,-6.107180565035343,-8.873486522078514,-1.7892302721589803
1667080693513940700,11.868940673828124,-5.379949994069338,-7.330512399435043,-2.13930130867511
1667080693533883000,11.8888828125,-3.8346693480491636,-5.756667337709665,-1.0075643466502426
1667080693553823700,11.90882373046875,-3.0466449934244153,-4.139313973647356,-0.4801300795808434
1667080693573765600,11.928765625,-2.3838942011535167,-2.8311434631347656,-0.4610676517143845
1667080693593707800,11.948707763671875,-1.5276690014839172,-1.714595010152459,-0.06326426542550324
1667080693613650000,11.96864990234375,-0.9133967011779546,-0.6562240208506583,0.3001856003627181
1667080693633591800,11.988591796875,-0.7115455105781555,0.27830957638025283,0.34647213524132964
1667080693653534200,12.0085341796875,-0.43053631985038515,1.0303162766844034,0.18471998652424662
1667080693673475000,12.02847509765625,-0.2283689029082656,1.7429221099704504,0.22380371388457715
1667080693693417000,12.0484169921875,-0.0042423137448728086,2.600398186483979,0.03789448104314506
1667080693713359000,12.068359130859376,0.003544540739059448,3.136888158929348,0.028986732770502566
1667080693733301200,12.08830126953125,0.3390427158929407,3.821529880490899,-0.4615940867412835
1667080693753243000,12.108242919921874,0.5964695901770144,4.47523110486567,-0.7235303282085805
1667080693773185000,12.12818505859375,0.9240776696681976,5.152405559286475,-0.7249772390812635
1667080693793127200,12.148127197265625,0.9466168337345122,5.8227381849884985,-0.7451996506378055
1667080693813069000,12.168069091796875,0.6979086148917675,6.1696753073930735,-0.8568841019697487
1667080693833010000,12.188010009765625,0.7122562891960144,6.3993450637668365,-0.7176609977837651
1667080693852952000,12.2079521484375,0.8231225560128689,6.784973443615436,-0.6490230034306645
1667080693872894000,12.22789404296875,1.0044038367927073,7.232772156172991,-0.4575887235574424
1667080693892836000,12.247836181640626,0.7054197211742401,7.536665086621046,-0.18846271671652792
1667080693912778200,12.2677783203125,0.43781040250658987,7.469863002458214,0.31709925269745287
1667080693932720000,12.28772021484375,0.4283283249447122,7.34092565689981,-0.1893495094884187
1667080693952662000,12.307662109375,0.2051683888563886,6.751173465344309,-1.0321216456059366
1667080693972604200,12.327604248046875,0.04684362077210098,6.331297363457083,-1.0045623152900487
1667080693992546000,12.347546142578125,-0.8776134401351213,5.9437225257158275,-0.8960165273100137
1667080694012487200,12.367487060546875,-1.475710266187787,4.687883090943098,1.0879272655885666
1667080694032429000,12.387428955078125,-2.1245465148746967,3.3091169492036103,1.6440581233754754
1667080694052372000,12.4073720703125,-3.547003914302587,1.0518418797940015,0.5338455954164266
1667080694072313000,12.42731298828125,-2.9111598336577416,-3.07093772315979,-0.7967331462591886
1667080694092255200,12.447255126953126,-0.6049579439938068,-6.926909386956691,-0.5063409178972244
1667080694112197000,12.467197021484376,0.6327344241917133,-9.251368233323097,1.11767950283885
1667080694132139000,12.487138916015626,-0.0409461967639625,-9.986274745744467,0.23065200887676326
1667080694152081000,12.507080810546874,-3.20023805681169,-10.249657971149682,-0.9402434993103146
1667080694172023000,12.52702294921875,-4.326612615020573,-10.489462752568722,-1.81518216727823
1667080694191965200,12.546965087890625,-2.8454876303076744,-9.77589596529603,-1.4685831907868385
1667080694211907000,12.566906982421875,-1.8106056531429289,-9.486548277550936,-2.1355258817896248
1667080694231849000,12.586848876953125,-1.389334297505021,-8.87328778463602,-2.7888991893842814
1667080694251790000,12.6067900390625,-1.1613999866217375,-7.661632359504699,-2.307266011764109
1667080694271732000,12.62673193359375,-2.0750509548217058,-6.089295948776602,-1.553199456320703
1667080694291674000,12.646674072265625,-3.0864699310734864,-4.498545929479599,-0.7364465814702212
1667080694311616300,12.6666162109375,-3.632220191556215,-3.352485550808906,0.020304829142987726
1667080694331558000,12.686557861328126,-3.0953274835288522,-2.040645411872864,0.4182718815609813
1667080694351500000,12.7065,-2.517134796863794,-0.7601461676180362,0.8236753675900399
1667080694371442200,12.726442138671874,-2.435733109462261,0.06466448761224747,0.9294209303922951
1667080694391384000,12.746384033203125,-2.191572470921278,0.5672539440214633,0.6580969751156867
1667080694411326200,12.766326171875,-1.5529577565193176,1.1761720238178968,0.2745155909247696
1667080694431267000,12.78626708984375,-1.241629707634449,1.8740052353858947,0.12751257345229386
1667080694451209000,12.806208984375,-0.9175262021981179,2.6367741527229547,0.406086353726685
1667080694471151000,12.826151123046875,-0.5378830342389643,3.7857799371957777,0.5057119723439216
1667080694491093200,12.84609326171875,-0.06549889260977507,4.642945048063993,0.6812757522597909
1667080694511035000,12.866034912109376,0.565796146428585,5.689689312458038,0.83905691498667
1667080694530977000,12.88597705078125,0.5719789267167449,6.284257379862666,0.6410615230321883
1667080694550919200,12.905919189453124,0.28362083453089,6.604721505883336,0.24922376714944838
1667080694570861000,12.925861083984374,-0.03382949662655592,6.911669147726893,-0.24065496850758789
1667080694590803200,12.94580322265625,-0.21189649153500795,7.310411276170611,-0.49780192987173794
1667080694610744000,12.965744140625,-0.24452158080786465,7.514708106356859,-0.6669891604930162
1667080694630686000,12.98568603515625,-0.3889598623588681,7.55400083682537,-0.7683291818127036
1667080694650628000,13.005628173828125,-0.6462500315859914,7.388769942614435,-0.866698078367114
1667080694670569500,13.025569580078125,-0.6878679901316762,7.072101701745391,-0.8780211441531777
1667080694690511400,13.045511474609375,-0.263088918633759,6.54766281709969,-0.5403830343611538
1667080694710453500,13.06545361328125,0.08111994785070419,5.927336623582244,-0.5660346313595771
1667080694730395600,13.085395751953126,0.4646002097547054,5.038485165596008,-0.4682920500099659
1667080694750337500,13.105337646484376,1.096498475383222,4.14102136208713,-0.38836701103225346
1667080694770279700,13.12527978515625,1.3110625786922872,2.378561607953906,0.19833193043246863
1667080694790220500,13.145220458984374,1.041130516165495,0.9895920521080493,-0.2910691047102213
1667080694810162400,13.165162353515624,0.8961844312228262,0.12811667682528496,0.43922655291482804
1667080694830104600,13.1851044921875,-0.2651297768115997,-1.2776555452615022,0.3695388303130865
1667080694850046700,13.205046630859375,0.06123042151033878,-3.748701375645399,-0.1698597230553627
1667080694869988400,13.22498828125,-0.9656452862661331,-5.535474317780137,-0.29187092261239883
1667080694889930500,13.244930419921875,-3.360335679787397,-7.087554706943035,0.6397872653126716
1667080694909872600,13.26487255859375,-4.488409150868654,-7.796942747226357,0.7588435605868696
1667080694929814500,13.284814453125,-3.782811735039949,-8.3034525919497,0.753177205388248
1667080694949756700,13.304756591796876,-3.637140112301707,-9.080922234812379,0.6581049392264336
1667080694969697500,13.324697509765626,-4.093708114509284,-8.507164315724372,-0.5852141097344458
1667080694989639400,13.344639404296874,-3.4666602115213867,-6.628122839736938,-1.5580477731347082
1667080695009581600,13.36458154296875,-2.3707230232827365,-5.180872944357991,-1.7679057445794344
1667080695029523700,13.384523681640625,-1.401711402388662,-4.009503936907649,-1.4596981658026575
1667080695049465300,13.40446533203125,-0.358701721413061,-3.2194115438371895,-0.7458777690950781
1667080695069407500,13.424407470703125,0.36971820546798406,-3.4333073924958706,-0.34482487949095664
1667080695089349600,13.444349609375,0.44807928306460376,-3.3916789125561713,0.15326163947582244
1667080695109291500,13.46429150390625,0.0010270414927974342,-2.5459149011462925,0.35716092171184716
1667080695129233700,13.484233642578126,-0.8498153326272964,-1.343514795616269,0.33938473426364363
1667080695149174500,13.504174560546875,-1.0665163018345831,-0.8516670979738235,0.31745676089823244
1667080695169116400,13.524116455078126,-0.06515318444464355,-0.431700395193696,0.18794592630080878
1667080695189058600,13.54405859375,0.01881817078180611,-0.17029694542884827,-0.5046293647389859
1667080695209000700,13.564000732421874,-0.45970776153802867,0.10164835661649703,-0.805464441986382
1667080695228942600,13.583942626953124,-0.12607903351783753,1.0281260731637478,-0.6074892160370946
1667080695248884500,13.603884521484375,0.2906426959916949,2.2864994103282688,-0.21873181744776665
1667080695268826400,13.623826416015625,0.43812955145835875,3.303080591648817,0.24422142881751058
1667080695288768500,13.6437685546875,0.41394451988115905,4.005959980690479,0.3725478028707206
1667080695308709600,13.663709716796875,0.6731447605133056,4.677703057712316,0.1769435438364744
1667080695328651500,13.683651611328125,0.7130046233452856,5.316454550236463,-0.23433906335905194
1667080695348593400,13.703593505859375,0.43887277104109523,5.849678798884153,-0.581127424942702
1667080695368535600,13.72353564453125,0.022903905725479123,6.360348685896397,-0.9871969736650585
1667080695388477400,13.7434775390625,-0.2546738492488861,7.033425641870498,-1.5821785903066397
1667080695408419600,13.763419677734374,-0.5482347707748413,7.526376332318782,-1.085332645985484
1667080695428361500,13.783361572265624,-1.059781294491142,7.656472200262546,-0.1394935186251998
1667080695448303400,13.803303466796875,-0.7833014177560805,7.454234640693664,0.44977848819792265
1667080695468245500,13.82324560546875,-0.32932430882453917,7.125975915274023,0.7494900413081049
1667080695488186600,13.8431865234375,-0.19498017231915146,6.7612792642951005,0.2917648318894207
1667080695508128800,13.863128662109375,-0.8662146787643432,6.439886917513609,0.03768880240321159
1667080695528070400,13.8830703125,-1.7356769611477851,5.4575031893491746,0.3709377373255789
1667080695548012500,13.903012451171875,-2.4100755211144684,4.300563689267635,1.4447811671778559
1667080695567954400,13.922954345703126,-1.7753659974575042,2.8847844524294137,1.2481126399129627
1667080695587896600,13.942896484375,-1.2590128041118382,1.0003104299992323,0.3228219411931932
1667080695607838700,13.962838623046874,-0.3204027512222528,-0.613221329948306,0.498053566545248
1667080695627780400,13.9827802734375,1.11156671904698,-2.2381109347343444,0.6190146725274622
1667080695647721500,14.002721435546874,1.4135788041844963,-3.7946354438245296,0.3408106023482978
1667080695667663600,14.02266357421875,-2.7076702282011507,-5.189163218319416,-0.4973065475702286
1667080695687605500,14.04260546875,-5.786279216641187,-7.052215682536363,-0.5247942739546299
1667080695707547400,14.06254736328125,-4.864525313745439,-9.273111278575659,-0.5734190425224602
1667080695727489500,14.082489501953125,-3.7508041931435465,-11.136654741179942,-1.2720131554603575
1667080695747431400,14.102431396484375,-4.462501971673965,-12.318674906504153,-3.043537967319786
1667080695767373600,14.12237353515625,-4.8889782024785875,-12.263804667675494,-3.705379243530333
1667080695787315700,14.142315673828126,-2.5838363432615994,-10.504083983117342,-3.1288360776379704
1667080695807257300,14.16225732421875,-1.7801587846919893,-8.50550719616711,-1.9161375731945036
1667080695827198500,14.182198486328126,-1.525024624454975,-6.956578549033403,-1.389841662505269
1667080695847140600,14.202140625,-1.5911106693029402,-5.65846532215476,-0.9579621113523841
1667080695867082500,14.22208251953125,-1.6971604757487773,-4.02272406848669,-0.527819174733758
1667080695887024600,14.242024658203125,-1.3778855595126747,-2.5598691922187804,-0.1704052281089127
1667080695906966500,14.261966552734375,-1.1643043297611175,-0.9857125803261995,0.2444016076900065
1667080695926908400,14.281908447265625,-1.1649110634826123,0.10030161818265915,0.7291651922903954
1667080695946850600,14.3018505859375,-0.7202315058588982,1.3945359578013419,0.7073273083612323
1667080695966792700,14.321792724609375,0.034767435063794254,2.4616426267445086,0.809972274799645
1667080695986733300,14.3417333984375,0.23073070013616231,3.172438195738196,0.6056714990906417
1667080696006675500,14.361675537109376,-0.08534837920069693,4.0488171256423,-0.5609469528317451
1667080696026617600,14.38161767578125,-0.2115302885711193,4.550892202788591,-0.9343871744975447
1667080696046559500,14.4015595703125,-0.38677700189445163,5.083866276067495,-1.0839521514125168
1667080696066501600,14.421501708984374,0.2342051347810775,5.732858592098951,-1.1001847626805306
1667080696086443500,14.441443603515625,1.1619031869035215,6.579719166573882,-0.8343263793334365
1667080696106385400,14.461385498046875,1.7591630506753921,7.202879122212528,-0.5181628731161355
1667080696126327600,14.48132763671875,1.9218039283931254,8.126416109132766,-0.06582388678044081
1667080696146269400,14.50126953125,0.9471534248292446,9.395960244131087,-0.08105828079134225
1667080696166210300,14.521210205078125,-1.3445242649197577,10.049292050671577,0.6971186335578561
1667080696186152400,14.54115234375,-1.8795932646512985,9.567174888926743,0.9990659828960895
1667080696206094600,14.561094482421876,-1.0087310523420572,9.516464107865094,0.8141074749082327
1667080696226036500,14.581036376953126,0.049392099678516384,9.118177321973443,0.09564560907036065
1667080696245978600,14.600978515625,0.34026765457801517,8.319869473743438,-0.6555053511872887
1667080696265920500,14.62092041015625,-0.22889994104504585,7.398939454451203,-0.8042424989759922
1667080696285862400,14.6408623046875,-1.6146785918951034,5.698831819334626,-2.3807106026813387
1667080696305804500,14.660804443359375,-2.12282451338768,3.7371746039807796,-2.5500045085474845
1667080696325746400,14.680746337890625,-1.3766922580748795,3.1248353175640102,0.9785150700375437
1667080696345687600,14.7006875,-0.056210985913127655,-0.08856032698452472,1.4840740437768398
1667080696365629400,14.72062939453125,-1.3296994746230542,-6.103723702579736,-1.0218008156649767
1667080696385571600,14.740571533203125,-3.826481365418434,-9.110677321606873,-2.050876006247103
1667080696405513500,14.760513427734375,-3.536995730507374,-10.007910238969325,-0.4124696250230074
1667080696425455600,14.78045556640625,-2.752922451595962,-10.462640212094783,-0.8633634540516882
1667080696445397500,14.8003974609375,-4.264782474051415,-10.931618490803242,-2.134464097777009
1667080696465339400,14.82033935546875,-3.7364153100460764,-10.55013378663063,-1.4209147000305353
1667080696485281500,14.840281494140624,-2.7074641842350364,-10.241318012827634,-0.6809736275080591
1667080696505222700,14.86022265625,-2.923893058502674,-9.485725270730256,-0.8871569290280341
1667080696525164500,14.88016455078125,-4.125922577154636,-7.91788207976818,-1.890976243931055
1667080696545106400,14.9001064453125,-3.596559387849271,-6.4678247257530685,-1.7016168706357477
1667080696565048600,14.920048583984375,-1.7441101507112382,-5.822352985063195,-1.3422817466899752
1667080696584990500,14.939990478515625,-0.6765037155523895,-5.256698292931914,-0.8410852790091187
1667080696604932600,14.9599326171875,-0.7976061297014355,-4.032707702362537,-0.1321041390262544
1667080696624874500,14.97987451171875,-1.3284557581722736,-3.175525055837631,-0.20668080271333455
1667080696644816600,14.999816650390626,-1.6748298398666084,-2.0856296319812535,0.23019078457318246
1667080696664757200,15.01975732421875,-1.6976419756554066,-1.207065759253502,1.4421579790674148
1667080696684699400,15.039699462890624,-1.5061644411623476,-0.8633452608078718,2.801108098094165
1667080696704641300,15.059641357421874,-0.8134533949136733,0.5583809017360211,1.7500098762743175
1667080696724583400,15.07958349609375,0.12096910662557929,1.9899118344575166,-0.18932408278621732
1667080696744525300,15.099525390625,0.29072949749231336,2.433718847030401,-2.3969348845124245
1667080696764467200,15.11946728515625,-0.2597241914410144,2.888866753306985,-2.775089275218546
1667080696784409300,15.139409423828125,-0.1359082074843347,3.820895674240589,-1.5103433342821895
1667080696804351200,15.159351318359375,0.3083585315547883,5.359408141300082,-0.5261160240776837
1667080696824293400,15.17929345703125,0.5749765010975301,6.7830930366963145,-0.01799406798258424
1667080696844234200,15.199234130859375,0.41976504272818566,7.268001290464401,0.4898369423419237
1667080696864176400,15.21917626953125,0.22151260727271435,7.600054731991887,0.3594882686808705
1667080696884118300,15.2391181640625,0.052354602745920416,8.179006712591647,0.06557721854299306
1667080696904060400,15.259060302734374,-0.2181064520910382,9.009187370422483,-0.21265666225254534
1667080696924002000,15.279001953125,-0.7873650139331817,9.409809321263433,-0.41272418430596586
1667080696943944200,15.298944091796875,-1.4251298335075377,9.279605316770077,-0.3954536082923412
1667080696963886300,15.31888623046875,-1.4557916598834097,9.014064036548136,-0.5144838923424482
1667080696983828200,15.338828125,-1.0114392153222114,8.935817598307132,-0.4973319742724299
1667080697003770400,15.358770263671875,-0.616693974494934,8.768654859250784,-1.082623094765842
1667080697023711200,15.378711181640625,-0.11978257285528815,7.9963705100715154,-0.8648322844952344
1667080697043653400,15.3986533203125,-0.5189595764517784,5.708710239270329,-0.44967415104061365
1667080697063595300,15.41859521484375,-1.8513070813655852,3.8595693960279225,-0.6062653733305633
1667080697083537400,15.438537353515626,-0.9525707737028598,2.8190169720113274,-0.3010854718118906
1667080697103479300,15.458479248046874,0.43277898421064015,0.0037070378243923186,-0.47014717635735864
1667080697123421200,15.478421142578124,-0.465419709444046,-4.528889629817009,-0.23525047911554572
1667080697143363300,15.49836328125,-1.1822772088252007,-7.7145333440870045,0.42950076625756917
1667080697163305200,15.51830517578125,-0.87937840398103,-9.317135713741182,-1.2796151548966765
1667080697183246300,15.538246337890625,-2.9613720175474882,-9.690860889828205,-2.5478175198972224
1667080697203188200,15.558188232421875,-6.274376037317514,-9.910635275131463,-2.126140506067872
1667080697223130000,15.578130126953125,-7.708596355253458,-10.727152733790874,-0.5717860710257664
1667080697243072300,15.598072265625,-5.118896088394522,-11.580157217848301,1.1366133358895778
1667080697263014400,15.618014404296876,-3.1760634004980326,-10.529522375756502,0.007484766264818608
1667080697282956300,15.637956298828126,-3.3704885327503082,-8.971434270611406,-1.874248981013894
1667080697302898200,15.657898193359374,-2.882808183920383,-7.625090389049053,-2.437218964105844
1667080697322840300,15.67784033203125,-2.035331523373723,-6.750051767838001,-1.8626818773388862
1667080697342781200,15.69778125,-2.037901666122675,-5.189844186320901,-1.1486641314283013
1667080697362723300,15.717723388671875,-2.3320953325942155,-3.87900708694756,-0.718595648285374
1667080697382665500,15.73766552734375,-2.3796954342894256,-2.669030993205309,-0.19377784732468425
1667080697402607000,15.757607177734375,-2.0058616832613945,-1.4863561633646487,0.39817251186221836
1667080697422549200,15.77754931640625,-1.4314182661272585,-0.45136546512842174,0.9042472531039267
1667080697442491400,15.797491455078125,-0.6003705431383103,0.4277887747079134,0.6011213615056127
1667080697462433300,15.817433349609376,-0.19142390460968017,1.129395659595728,0.4798267127200961
1667080697482375400,15.83737548828125,-0.2601262694358826,1.9998796862423418,0.32765316074192524
1667080697502316300,15.85731640625,-0.4426993435919285,3.183731743168831,0.08349668691940605
1667080697522258200,15.877258056640626,-0.09729019793961197,4.047682568654418,-0.2625006704170257
1667080697542200300,15.897200439453124,0.3953448141556233,4.706232402104139,-0.2894173919804394
1667080697562142500,15.917142578125,0.47525604380369185,5.646956086146831,-0.12862901026159523
1667080697582084000,15.937083984375,0.4841793549716472,6.366636972385645,0.005881166993081569
1667080697602026200,15.957026123046875,0.5971732814669609,6.835833277758955,-0.14929536619335412
1667080697621967400,15.97696728515625,0.45741891994848843,7.214194881474971,-0.3095497871659696
1667080697641909200,15.9969091796875,0.036046149762719866,7.328155022653937,-0.4008810401685536
1667080697661852400,16.016852294921875,-0.5203028077542782,7.419246329420805,-0.6898457199454308
1667080697681794000,16.0367939453125,-0.46489816978797316,7.357648243641853,-1.0580063937731086
1667080697701736200,16.056736083984376,-0.7848889792084693,7.335895261517167,-1.157732111763954
1667080697721678300,16.07667822265625,-1.3291840724468231,6.521954959869384,-0.22472104792520403
1667080697741620200,16.0966201171875,-0.9872959770601242,5.641370394968986,0.21515856207087636
1667080697761562400,16.116562255859375,0.09070143066644668,5.237392119437456,-0.055686815908551214
1667080697781503200,16.136503173828125,0.744163585588336,5.322337178534269,-0.46550578029230233
1667080697801445000,16.156445068359375,0.27744510503802444,4.657779629102349,-0.6010677316222339
1667080697821387300,16.17638720703125,-1.013928547919914,2.987850274628401,-0.6964804817847907
1667080697841329400,16.196329345703123,-2.0920036970578133,1.8205583073586225,-0.880617078930512
1667080697861271300,16.216271240234374,-0.9253647868692875,1.1332558421552181,-0.4574541373923421
1667080697881213200,16.236213134765624,0.4671734212435782,0.3818453541785478,-0.7389430013958365
1667080697901155300,16.2561552734375,0.0797711635902524,-2.033815273591876,0.6219031605105847
1667080697921097200,16.27609716796875,-2.9974335110098123,-4.3773523299157615,0.6014104806452989
1667080697941039400,16.296039306640626,-4.238949236875772,-7.690100913619995,0.08844079225808381
1667080697960980200,16.315980224609376,-2.9937831718087193,-9.537886835122109,0.0110647071108222
1667080697980922000,16.335922119140626,-3.551323531067371,-10.801438451707362,1.2773372730925678
1667080698000864300,16.3558642578125,-6.583896744519472,-11.345898380118609,1.6671172196626662
1667080698020806400,16.375806396484375,-7.853940061211586,-11.005340729618071,0.21000285980813205
1667080698040748300,16.395748291015625,-6.449011304211616,-9.26751331243813,-1.3312258074074983
1667080698060690200,16.415690185546875,-4.22090036996603,-7.425850257730484,-2.1385811777070165
1667080698080632300,16.43563232421875,-2.628762987963855,-5.205822676697373,-2.0898516335904596
1667080698100574200,16.45557421875,-1.4773431280866265,-3.643887248474359,-0.6128441671989858
1667080698120516400,16.475516357421874,-0.7980357532903551,-2.342803481352329,0.8774206940419972
1667080698140458200,16.495458251953124,-0.7733451102785766,-1.4152368005245923,1.43813398424834
1667080698160400400,16.515400390625,-0.07348726101517677,-0.5368330867946147,1.2076213473096489
1667080698180341200,16.53534130859375,-0.1588868589464575,-0.3717775491505861,0.8952892359487712
1667080698200283400,16.555283447265627,-0.7512847427051514,-0.41710722169578074,0.46152993546389043
1667080698220225300,16.575225341796877,-0.7873807960242033,0.15371113680899143,0.3829962047141045
1667080698240167400,16.59516748046875,-0.6124947692394256,0.8323194234251976,0.02802460974007845
1667080698260109300,16.615109375,-0.6628232729852199,1.2734119163423776,0.3186213476981968
1667080698280051200,16.63505126953125,-0.7930103263437748,1.9900597184956073,0.4398109286740422
1667080698299993300,16.654993408203126,-0.4142390458483249,2.8972686709493396,0.3432984005760401
1667080698319935200,16.674935302734376,0.16864026426300405,3.7180695060163735,0.3604602555181831
1667080698339877400,16.69487744140625,0.6330325303554535,4.321397218459844,0.4937418408259749
1667080698359818200,16.714818359375,0.7242530164599418,5.1387598957717415,0.18730507111400366
1667080698379760400,16.734760498046874,0.5335748156510293,5.56611086358428,-0.07366188692972063
1667080698399702300,16.754702392578125,0.7522492768883705,6.006238310861587,-0.12141396431624889
1667080698419644400,16.77464453125,0.7585537838600576,6.630393707278371,-0.06103183019831776
1667080698439586000,16.7945859375,0.3823438052199781,7.316374568489193,-0.23071765799149868
1667080698459528200,16.814528076171875,-0.01798120850101113,7.859065149140357,-0.34291049723699685
1667080698479470300,16.83447021484375,-0.1681530652679503,7.822184740510583,-0.41966406657174227
1667080698499412200,16.854412109375,0.1662440167762339,7.5330983340501785,-0.6785984958745539
1667080698519354400,16.874354248046874,0.8443418696522712,7.382351307743788,-0.8653311739280819
1667080698539295200,16.894295166015624,1.4431483052790164,7.2761466029971835,-1.2641973671428859
1667080698559237000,16.914237060546874,2.064174756020307,7.231552843511104,-1.2314328693993388
1667080698579179300,16.93417919921875,2.345427984637022,6.919390681889653,-0.8208454048611223
1667080698599121400,16.954121337890626,0.27964520889818667,5.5169467274427415,0.8025304343611002
1667080698619063300,16.974063232421877,-0.9760765908442437,2.795450218462944,0.4509786577679217
1667080698639005200,16.994005126953127,-1.7165758087061345,-0.3296832052648067,-0.8418676615584642
1667080698658946800,17.01394677734375,-2.0096528922379018,-3.123702514141798,-0.429210624204576
1667080698678888700,17.033888671875,-1.9217443071603775,-5.622811824971437,0.44935441756695504
1667080698698829800,17.053829833984373,-2.891653169155121,-6.604481267386674,-0.12580635405629872
1667080698718772000,17.07377197265625,-3.9678701962709426,-6.979053415691852,-0.6888546630814671
1667080698738713900,17.0937138671875,-7.197367665314674,-7.848340341508388,-0.838309019228816
1667080698758655700,17.11365576171875,-8.968703384342788,-9.419448087224364,-0.2439946343243122
1667080698778598000,17.133597900390626,-7.361642866235971,-9.471932307699323,-0.020651450623571873
1667080698798539800,17.153539794921876,-5.234769954240321,-8.838975765189527,-0.22493396002352237
1667080698818482000,17.17348193359375,-3.7270083070144056,-7.83209121749699,-0.2324480254480615
1667080698838423800,17.193423828125,-2.5584254231512547,-5.8518894606709475,0.2927063505232334
1667080698858365000,17.213364990234375,-1.4625585236698389,-4.516530498981475,0.17677315570563076
1667080698878306800,17.233306884765625,-0.9176792008027433,-4.556330009928345,-0.8543366094440221
1667080698898249000,17.2532490234375,-0.5039218740567565,-3.5566309898257256,-0.7723521537184714
1667080698918190600,17.273190673828125,-0.16754501637220381,-2.1974907550543543,-0.10648206038326025
1667080698938132700,17.2931328125,0.24337884051352737,-0.727924982970953,0.17683977293474598
1667080698958075000,17.313074951171874,0.46197526807859535,0.44037177742719646,0.871905291621387
1667080698978016800,17.333016845703124,0.2921136453270912,1.2135972068488596,1.1702142844572663
1667080698997959000,17.352958984375,0.2646305951178074,1.8723931240141392,0.3591074526697397
1667080699017900800,17.37290087890625,0.3577601297140121,2.6965397623777387,-0.27569793257713315
1667080699037842000,17.392842041015626,0.2948527149021625,3.7082296645253896,-0.3605637889578938
1667080699057783800,17.41278369140625,0.2997030775427818,4.565408219397067,-0.2010530259594321
1667080699077726000,17.432725830078127,0.2915268584150821,5.156957815763354,0.11453465313129127
1667080699097667800,17.452667724609373,0.48081075532138345,5.558263657215237,-0.22912527423352003
1667080699117609700,17.472609619140623,1.0947838534850627,5.759297101691365,-0.5703242913775146
1667080699137552000,17.4925517578125,1.4210416874110698,5.7916819524675605,-0.606657222192362
1667080699157493800,17.51249365234375,1.3417799346476793,6.186496093812584,-0.31470329747162756
1667080699177436000,17.532435791015626,1.1497568951010704,6.9276458845376965,-0.21146102272719144
1667080699197376800,17.552376708984376,1.2929729413807391,7.479920870614051,0.1320533586870879
1667080699217318700,17.572318603515626,1.8007191960312425,7.44864719595015,0.4843841568287462
1667080699237260800,17.5922607421875,2.1779192086219785,7.160543955308198,0.13493366336375473
1667080699257203000,17.612202880859375,2.657867794156074,6.817862736782431,-1.1877431460808963
1667080699277144800,17.632144775390625,2.7521640344440934,6.3756695891469715,-2.359561431668699
1667080699297086700,17.652086669921875,0.6730088591739535,6.373829514238238,-2.325646302585304
1667080699317028900,17.67202880859375,-2.3606699774324893,5.866435287895798,-1.62626673835814
1667080699336970800,17.691970703125,-4.061644750772416,5.565168614298105,-0.2334700985047966
1667080699356913000,17.711912841796874,-3.9171456789448853,4.35736226581037,-0.16160459347255526
1667080699376853800,17.731853759765624,-2.7780545547649265,0.912899857571721,0.33278460534624754
1667080699396795600,17.751795654296874,-2.4830954568788406,-3.1722914807438847,0.9979827177040278
1667080699416737800,17.77173779296875,-2.9591783068954944,-6.949699895435571,0.7134098431453109
1667080699436680000,17.791679931640626,-3.612402561408281,-11.192831970953941,0.19992825971320272
1667080699456621800,17.811621826171876,-5.2806899938941,-13.18760644301176,0.6513458203550427
1667080699476564000,17.83156396484375,-6.306393808346987,-13.406924901241064,1.3002514079511165
1667080699496505900,17.851505859375,-5.836268697690963,-13.32809744824171,0.137715329971537
1667080699516447700,17.87144775390625,-4.88368623355031,-12.599205666065215,-0.26800387094318867
1667080699536388900,17.891388916015625,-4.3096398529097435,-10.537812065196036,-1.1529534261200576
1667080699556331000,17.9113310546875,-3.9354043892130255,-8.245981815233826,-2.212000926443934
1667080699576272600,17.931272705078126,-2.722181276373565,-6.009264965206384,-2.367193387851864
1667080699596214800,17.95121484375,-1.7436895872116087,-4.489073167735338,-1.6738684474885464
1667080699616157000,17.971156982421874,-0.8963596416592597,-3.0935236489772793,-1.351554894208908
1667080699636098800,17.991098876953124,-0.5557803638488054,-1.7349778729677199,-0.8401300971761345
1667080699656041000,18.011041015625,-0.1790484071612358,-0.18912556453943252,-0.07360650348067284
1667080699675983000,18.030983154296877,0.19749884060919284,1.1136381184935569,0.5492419019907713
1667080699695924000,18.050924072265627,-0.368266399224475,1.7982856852740048,0.05086509484052658
1667080699715866000,18.0708662109375,-1.1573019036531447,2.063023247897625,-1.1877549095839262
1667080699735808300,18.090808349609375,-1.8005132981956005,1.9455811098217963,-1.8624924922466277
1667080699755750100,18.110750244140625,-1.3485621421337126,2.682303731754422,-1.810141250501573
1667080699775692300,18.1306923828125,-0.5267208581030368,3.805930744820833,-1.0323615187764168
1667080699795634200,18.15063427734375,-0.07215338206291198,4.874236852681636,-0.27204525528848167
1667080699815576000,18.170576171875,0.4373955380953848,5.832329020154476,-0.09706979665458201
1667080699835518200,18.190518310546874,0.7742095450881868,6.624387160339952,-0.42776247122287747
1667080699855459300,18.210459228515624,1.0396236187338828,7.032092931962013,-0.42963966327160596
1667080699875401200,18.230401123046875,1.2858745075523852,7.719661939147114,-0.3327437618792057
1667080699895343000,18.250343017578125,1.4138112977661192,8.90795694695711,0.20911270603537557
1667080699915285000,18.270284912109375,0.009960179935023189,9.674292032343148,1.5947881887719033
1667080699935227100,18.29022705078125,-0.6194739606022834,9.560092237189412,1.9903262604773044
1667080699955169300,18.310169189453124,0.7704406940739601,10.047603951454162,1.950751205936074
1667080699975111200,18.330111083984374,1.4509773914694786,10.186091215646266,1.9103259643062949
1667080699995053000,18.350052978515624,-0.032715708432067184,9.312700361642241,1.917429658831656
1667080700014995200,18.3699951171875,-0.8502847037047148,7.840310179787874,0.8878586475566029
1667080700034936000,18.38993603515625,-0.3971142349809408,6.573907265424728,0.11023235282748937
1667080700054878200,18.409878173828126,-1.1841670411597938,5.196207291612029,-0.8693645210973918
1667080700074820000,18.429820068359376,-1.058690649710223,2.927447536113858,-1.3857076314404606
1667080700094762000,18.449761962890626,-0.6642622197471558,0.4113806607425213,-2.599400699879229
1667080700114704100,18.4697041015625,-0.8014348942093551,-0.833400204399228,-2.546471365985274
1667080700134646300,18.489646240234375,-1.536311742144823,-2.9846015019655225,-2.5077844924554227
1667080700154588200,18.509588134765625,-3.128010148207843,-6.909388343313336,-3.87690894562453
1667080700174530300,18.5295302734375,-3.4263325850471853,-9.894968919444084,-4.1295208939075465
1667080700194471200,18.54947119140625,-3.483994792681932,-11.392934856581688,-4.15849681302309
1667080700214413000,18.5694130859375,-4.459549551609158,-12.237601720404625,-3.0163948165893553
1667080700234355200,18.589355224609374,-5.3601130746990435,-11.729714157587289,-2.73131092376858
1667080700254297300,18.60929736328125,-6.558518557634949,-11.078688874423504,-3.2292253741040824
1667080700274239000,18.629239013671874,-6.686202103739976,-10.306106419080495,-3.6248055313855407
1667080700294181000,18.64918115234375,-5.578771023193001,-8.782234471791982,-3.1918072053357958
1667080700314123300,18.669123291015627,-4.112610675638914,-6.718788030046224,-2.3221666437759994
1667080700334065200,18.689065185546873,-2.811783805887401,-4.929922499546408,-1.7663506240919231
1667080700354006000,18.709006103515627,-1.971380152466893,-3.9426428160339593,-1.0309789053115994
1667080700373948200,18.7289482421875,-1.5053297439038753,-2.50337865871191,-1.1733762556195257
1667080700393890000,18.74889013671875,-1.4460403734587133,-0.9309148222118615,-0.7828452714864164
1667080700413832200,18.768832275390626,-1.619346437575668,0.39860944197475906,-0.6154078802071511
1667080700433774300,18.7887744140625,-1.9752736527740955,1.6901380297660826,-0.6745555040940642
1667080700453716000,18.808716064453126,-1.4413596682965755,2.9613562354564666,-0.748702982583642
1667080700473658000,18.828658203125,0.07012976728081703,3.647307870572805,-1.025703229930997
1667080700493600300,18.848600341796875,0.15168339384105056,4.245010728871822,-1.1218754932239652
1667080700513541000,18.868541015625,0.0038262802898883816,4.72788309289813,-1.5643740535467863
1667080700533483300,18.888483154296875,0.3941454483032226,5.382289835193753,-1.4049515533536672
1667080700553425200,18.908425048828125,0.8845568295322358,5.890967671605944,-1.5129136231616138
1667080700573367000,18.928366943359375,0.726551210399717,6.36616175608933,-1.3232728025764227
1667080700593309200,18.94830908203125,0.6399857835594565,7.108379468306898,-1.234204818330705
1667080700613251300,18.968251220703124,-0.09699095926471055,8.035487299451232,-0.7569733828008175
1667080700633193200,18.988193115234374,-0.612116072120145,8.677039820870757,-0.24851824922859667
1667080700653135000,19.008135009765624,-0.5513081868708133,8.711720089107752,0.4057923392161727
1667080700673077000,19.028076904296874,0.031205139472335577,8.582053844752908,0.8152472925931215
1667080700693017900,19.048017822265624,0.8860567857664078,8.394554420110582,1.4274208670541644
1667080700712960000,19.0679599609375,0.9971440749228,8.066688493400811,1.2628615884944796
1667080700732902100,19.087902099609376,0.37615269549489017,7.1543053531795735,0.45679742704927917
1667080700752843800,19.10784375,-0.1995791540145874,6.481154162925481,-0.5142135509684682
1667080700772786000,19.127785888671873,0.31592005285024644,5.570094380262494,-1.921934861296415
1667080700792728000,19.14772802734375,1.268261693972349,3.922523572590947,-2.2811790920883417
1667080700812670000,19.167669921875,1.0523684609513728,1.9782067836165427,-0.8350720831342041
1667080700832612000,19.187612060546876,-1.4872773698627948,-0.8267483452945947,-0.8928476149503141
1667080700852553000,19.207552978515626,-0.7928143653802573,-4.062680815821886,-2.3863576686576007
1667080700872494800,19.227494873046876,-0.8131658101439475,-7.716262944358586,-3.068734660157561
1667080700892437000,19.24743701171875,-2.4761241565614935,-8.722643634182214,-1.4936989273428916
1667080700912379100,19.267379150390624,-4.07596086089462,-9.872588745331763,-1.719718344515562
1667080700932320800,19.28732080078125,-4.705803655298054,-11.151611487293243,-3.5733410093471405
1667080700952263000,19.307262939453125,-3.722848556986451,-11.458050595092773,-3.832225169767439
1667080700972204800,19.327204833984375,-2.558318163384497,-12.427882300198078,-1.7757009285002945
1667080700992147000,19.34714697265625,-1.1799825220167637,-8.27629862756431,-4.422895352950692
1667080701012088000,19.367088134765623,-0.7170765489593148,-6.102234340804815,-1.3119117428675293
1667080701032030000,19.387030029296874,-2.037300777620077,-5.568729521650075,-0.45955169419348235
1667080701051971800,19.406971923828124,-1.5620400576412676,-4.25702557631433,-1.3559063674166798
1667080701071914000,19.4269140625,-1.1049459857329726,-3.326137057587504,-2.228508701391518
1667080701091856100,19.446856201171876,-1.3757494242668151,-1.9369512286424635,-1.1000579214304684
1667080701111798000,19.466798095703126,-2.222697092503309,-0.716734895914793,-0.03448942184001207
1667080701131740000,19.486739990234376,-1.45429455319345,-0.2875911994665861,0.3898292656045407
1667080701151681800,19.506681884765626,-0.06966032313816249,0.0002881692916154861,0.5762496628385037
1667080701171623000,19.526622802734376,0.32372338354494423,0.2048760913789272,-1.3059632097266614
1667080701191565000,19.54656494140625,0.0330886242645327,0.8343079668939113,-2.6667297305256126
1667080701211507000,19.5665068359375,-0.012522810664377175,1.72031864849627,-1.51667882091403
1667080701231448800,19.58644873046875,0.058428789826761925,2.8487194518357515,-0.5054870775468647
1667080701251391000,19.606390869140625,0.015549451309442519,3.5912826164901253,-0.286438814561069
1667080701271332900,19.626332763671876,0.35071306074671443,3.7405689225941896,-0.7942907215431332
1667080701291275000,19.64627490234375,0.7803788813728839,4.0687937457442285,-1.8803560657173395
1667080701311217000,19.666216796875,0.3841969588059932,4.776408931136131,-1.6747984218150376
1667080701331158000,19.686157958984374,-0.30552718058638273,5.640152251350879,-0.3662242989376187
1667080701351100000,19.706099853515624,-0.17370357553455978,6.624350335460901,0.10693155771642923
1667080701371042000,19.7260419921875,0.4749848256468773,7.359009010601043,-0.06660889967828988
1667080701390984000,19.74598388671875,0.19642971354033797,7.792500965386629,0.1575380016207695
1667080701410925800,19.76592578125,-1.003766707932949,7.944702866676449,0.4361579591244459
1667080701430868000,19.785867919921873,-1.0893559101521968,8.123252676665782,1.533243586745858
1667080701450809900,19.805809814453124,0.24425180568946525,7.947079532679915,2.1471298103436824
1667080701470752000,19.825751953125,0.8845265805244446,7.515453956288098,1.6335861214607954
1667080701490694100,19.845694091796876,1.3891373136281966,7.221531215712428,0.5332374003902077
1667080701510635000,19.865635009765626,1.3243711192071437,6.8677300527572624,-0.18521511309742927
1667080701530577000,19.885576904296876,0.6419453201293945,6.506988861405849,-1.1494408148892223
1667080701550519000,19.90551904296875,-0.8795013727735728,5.716281551307439,-0.7034462291441858
1667080701570461000,19.9254609375,-0.7516133170723914,5.682081175541877,0.5012225519701838
1667080701590402800,19.94540283203125,-0.34572482400536536,4.370878749987483,0.1804997750133276
1667080701610344000,19.965343994140625,-1.8897709597945211,1.2734171770393847,-0.8891805438101291
1667080701630286000,19.9852861328125,-2.9141791814789175,-2.65781986336112,-2.159084159770608
1667080701650228000,20.00522802734375,-2.649619605770707,-5.897509056073427,-3.7443940338402983
1667080701670169300,20.02516943359375,-4.180749853624404,-9.355506068667768,-4.775771217754483
1667080701690111500,20.045111572265625,-5.356552167347073,-12.342667191988228,-5.452920537734031
1667080701710053400,20.065053466796876,-4.973434309014678,-13.348665604496002,-6.513488744819164
1667080701729995500,20.08499560546875,-3.326491862374544,-13.233547525453567,-6.454747802037001
1667080701749936400,20.104936279296876,-3.617581425350904,-12.1818850938797,-5.495433983814716
1667080701769878300,20.124878173828126,-4.138854831703007,-10.409790080916881,-4.767803015354276
1667080701789820400,20.1448203125,-3.482366899219155,-8.326870876938104,-4.357048377555609
1667080701809762600,20.164762451171875,-2.311404134482145,-6.418108800947666,-4.111181227357686
1667080701829704400,20.184704345703125,-2.037810188446939,-4.969268421506881,-3.448130867618322
1667080701849646300,20.204646240234375,-1.952582805277407,-3.328147228366136,-2.339720274514705
1667080701869588500,20.22458837890625,-1.715175440388918,-2.107230638414621,-1.82062815772444
1667080701889530400,20.2445302734375,-1.4637036020517349,-1.0467021788179873,-1.4074804873093962
1667080701909471500,20.264471435546874,-1.1485494190074503,0.05878478192389011,-0.8252455395162105
1667080701929413600,20.28441357421875,-0.6970242332726717,0.9914636911988258,-1.6077800645530222
1667080701949355300,20.304355224609374,-0.27809790639095006,1.7639724967837334,-1.8608190060764551
1667080701969297400,20.32429736328125,-0.2914916409712285,2.622244692111015,-1.2547073620028792
1667080701989239600,20.344239501953126,-0.22934591298056764,3.60406786378324,-0.45964507156535983
1667080702009181400,20.364181396484376,0.012990416759683284,4.259105305197835,-0.27708719497844575
1667080702029123600,20.38412353515625,0.08121812926186248,4.567149510106444,-1.079532435274124
1667080702049065500,20.4040654296875,0.32628015535566957,4.739489359539747,-1.8373802628219127
1667080702069006300,20.42400634765625,0.43385432182457295,5.31220916775167,-1.6540537399500608
1667080702088948500,20.443948486328125,0.2706898220915347,6.511756806460022,-0.8782844712644815
1667080702108890600,20.463890625,0.293820449244976,7.532154915720224,-0.5001417709961533
1667080702128832300,20.483832275390625,0.34256950177960094,8.218666522806883,-0.06382511417865752
1667080702148774400,20.5037744140625,0.6102267512422055,8.821348338562249,0.7994853675767779
1667080702168716500,20.523716552734374,0.5260989998776465,9.098815034377575,1.3099421963602305
1667080702188658400,20.543658447265624,-0.7585995957631617,8.857120493689179,1.0147545504152775
1667080702208600600,20.5636005859375,-1.4104068961501122,8.307982636594772,0.8120639863818884
1667080702228542200,20.583542236328125,-1.0173650982398539,7.858823741599917,0.7506415494307875
1667080702248483300,20.6034833984375,-0.830522603136301,7.41811703312993,0.5512687316432595
1667080702268425500,20.623425537109377,-0.5379272752394899,6.655128920084238,-0.422563733536005
1667080702288367600,20.64336767578125,-0.4979027233650908,5.403884996408224,-1.115389346075058
1667080702308309500,20.6633095703125,-0.8985200345635413,4.583070717337727,-0.15544614390805364
1667080702328251400,20.68325146484375,-0.8423696927964687,3.849778654375672,0.27476065172702074
1667080702348193300,20.703193359375,-0.10187105945646763,1.6134195317447184,-1.1567445620313286
1667080702368135400,20.723135498046876,-0.23377492667026817,-1.6467524770259856,-2.5567487221106884
1667080702388077600,20.74307763671875,-1.170069030767679,-3.396435751694441,-2.182802596749365
1667080702408018400,20.763018310546876,-1.35093106322214,-4.324779846635461,-0.8273036410897969
1667080702427960300,20.782960205078126,-2.556949797640741,-6.4796320679247374,-2.0167117247082293
1667080702447902500,20.80290234375,-3.878565772920847,-9.36158451179862,-3.658906246168911
1667080702467844600,20.8228447265625,-3.822816705431044,-10.734571485614776,-4.192197422572971
1667080702487786500,20.842786376953125,-3.2613463132470843,-11.570994252705573,-3.1053792142048477
1667080702507728400,20.862728271484375,-2.6118410792574287,-12.21968729352951,-3.328132615318894
1667080702527670300,20.882670166015625,-2.6434952776715157,-11.89638823634386,-3.536916820052266
1667080702547612400,20.9026123046875,-3.120359925715625,-10.423732097029685,-5.10351439486742
1667080702567553500,20.922553466796874,-4.048407083536684,-9.162207017835975,-6.813994370916485
1667080702587495400,20.942495361328124,-3.4293794053971767,-6.537855124312639,-3.516168046534061
1667080702607437300,20.962437255859374,-3.333965266995132,-4.885692897197604,-2.3936425649687645
1667080702627379500,20.98237939453125,-3.039845834803581,-3.651467328339815,-3.1515812856703995
1667080702647321300,21.0023212890625,-1.7514755649127065,-2.138548152220249,-2.416390987871587
1667080702667264300,21.02226416015625,-1.4216823234021663,-0.5913719017118215,-2.3019763809233904
1667080702687206100,21.0422060546875,-1.3879185854882001,0.49534080045521256,-2.410289456126094
1667080702707148300,21.062148193359373,-1.496065071952343,1.6692372805565594,-2.75655320931375
1667080702727089200,21.082089111328123,-1.4701257440537214,2.8002865525782106,-2.05541847198233
1667080702747031300,21.10203125,-1.3141630289256572,4.293584497904777,-1.603407548557222
1667080702766973200,21.12197314453125,-1.2445336123824118,5.146736281478405,-0.7357064306274056
1667080702786915300,21.141915283203126,-0.5425951574526727,5.376834492397308,-0.8102367709547281
1667080702806857500,21.161857421875,0.270247704347223,5.671634015807509,-1.0372203569844365
1667080702826799400,21.18179931640625,0.40039968639239665,5.893916000017524,-1.2766557205691933
1667080702846741200,21.2017412109375,0.09155366358160973,6.070582480478286,-1.02040103186965
1667080702866683100,21.22168310546875,-0.0737643243908882,6.790969469159841,-0.8347422666579485
1667080702886625300,21.241625244140625,-0.4940751644335687,7.564194314059614,-0.458347579100728
1667080702906566400,21.26156640625,-1.0028688823103904,8.294495378512144,0.28653964458703995
1667080702926508300,21.28150830078125,-1.0949569450296461,8.90547623605728,1.3172528116345406
1667080702946450200,21.3014501953125,-1.1120298065140843,9.239113731905817,1.4807000372990966
1667080702966392300,21.321392333984374,-0.9389153194464742,8.732152636283635,1.5191732680782675
1667080702986334200,21.341334228515624,0.05267009843587875,8.31714326364994,1.5688061907753348
1667080703006276400,21.3612763671875,1.063122567743063,8.340750933730602,1.3274287532120943
1667080703026218200,21.38121826171875,1.5377052423298359,7.797503303718567,0.6236126678422093
1667080703046160100,21.40116015625,0.8444796706877649,6.862266526654362,-0.0034361119285225864
1667080703066101200,21.421101318359376,-0.16440043473616242,5.777017467299103,-0.5660920606352389
1667080703086043400,21.44104345703125,-0.3851029677350074,5.160754869958758,-1.087062392387539
1667080703105985300,21.4609853515625,-0.572907439738512,4.07572792892158,-1.9433970437809824
1667080703125927200,21.48092724609375,-0.7787713731110095,1.2484902410537004,-1.9910434688359497
1667080703145869300,21.500869384765625,0.13075287054777143,-0.7868687548488378,-2.208636710707843
1667080703165811200,21.520811279296876,0.9962556016504764,-2.5241736094594,-2.9491987646728752
1667080703185753300,21.54075341796875,-1.252041796055436,-6.194187232837081,-3.547817568773031
1667080703205694200,21.560694091796876,-3.5950627195507288,-9.600720600175856,-4.291216015207767
1667080703225636400,21.58063623046875,-1.9930863728404045,-11.082510478538275,-3.659792673614621
1667080703245578200,21.600578125,-0.5891153549566864,-11.446674630075693,-2.4995371808528897
1667080703265520400,21.620520263671875,-1.722830923578143,-11.272809763032198,-2.2918919170215726
1667080703285462300,21.640462158203125,-3.8830540242508054,-11.741845324885844,-3.6332545030400154
1667080703305404200,21.660404052734375,-5.098091200774908,-11.550882023525237,-4.7782928451865905
1667080703325346300,21.68034619140625,-3.725604285435378,-9.705551093959809,-3.5767280214369297
1667080703345288200,21.7002880859375,-3.2252102932438254,-7.623608626058697,-2.45030114851892
1667080703365229300,21.720229248046873,-2.8528032140180466,-5.696929200583696,-2.2627973399624226
1667080703385171200,21.740171142578124,-2.5953859112799167,-4.495763605284691,-2.611872058917582
1667080703405113300,21.76011328125,-2.192105554884672,-3.455466617333889,-2.3409710052281616
1667080703425055200,21.78005517578125,-1.801522036846727,-2.0875749208301304,-2.011832282103598
1667080703444997400,21.799997314453126,-1.5129802586570382,-0.5405079759150743,-1.3801444443553685
1667080703464939300,21.819939208984376,-1.4531985746502876,0.8607640121430158,-0.707548696026951
1667080703484881200,21.839881103515626,-1.4423101008892059,1.7834680553704498,-0.9341485434360801
1667080703504823300,21.8598232421875,-1.7453087128460407,2.0365169337660074,-2.3130305666401982
1667080703524764400,21.879764404296875,-1.974871501713991,2.780242127937078,-2.2586828903809186
1667080703544706300,21.899706298828125,-1.5814800866484642,3.8984845253556966,-1.6067364007189868
1667080703564648400,21.9196484375,-0.9102245008826255,4.830020109814405,-0.5615788209944963
1667080703584590000,21.939590087890625,-0.3048820145506412,5.141741541931033,0.16773147885501383
1667080703604532200,21.9595322265625,0.0017931670270860194,5.320886395204067,0.12634937489181755
1667080703624474400,21.979474365234374,0.5258228132847697,5.3656970123112195,-0.5302338346600532
1667080703644416300,21.999416259765624,0.8836896913088857,5.447026218998432,-0.7999848415315151
1667080703664358100,22.019358154296874,0.9179983497545122,5.87260550096333,-0.5558677498713135
1667080703684299000,22.039299072265624,0.75736033629179,6.408181281173229,0.21389701770246028
1667080703704241200,22.0592412109375,0.7042691628996283,7.3603943274796,1.1783671957746147
1667080703724183000,22.07918310546875,0.8159175200048834,7.798163228932022,1.533460152105987
1667080703744125200,22.099125244140627,0.827077358053252,7.381706580099463,0.7423471838161348
1667080703764066800,22.11906689453125,1.2165373519539833,6.564954728162288,0.7949091457024217
1667080703784009000,22.139009033203124,1.4258534716069697,6.532093492045998,0.7126330135539174
1667080703803951000,22.158951171875,0.8560439978837966,6.178135092702508,0.6638987932622432
1667080703823893000,22.17889306640625,0.4649006174733862,5.582850401461124,-0.16654285359233617
1667080703843833900,22.198833740234374,0.19863224681960417,5.335798133131862,-0.06064151570647955
1667080703863776000,22.21877587890625,0.08654197289943695,5.738598597055673,-0.2657660288885236
1667080703883718000,22.2387177734375,-0.9725251819729804,5.321815785008669,-0.7124366141989826
1667080703903660000,22.258659912109376,-1.8769208305716514,4.581740345516801,-0.1752775103203952
1667080703923602200,22.278602294921875,-1.03635373021774,3.11461553684473,0.15910072089284658
1667080703943543800,22.298543701171877,-0.052224619690701364,1.9898563048779963,0.17056363354101775
1667080703963486000,22.31848583984375,-1.0741991844873875,-0.427759548613429,-1.1349898994062095
1667080703983428000,22.338427978515625,-1.6117261718302964,-2.834993124300241,-1.9137696750193833
1667080704003369200,22.358369140625,-1.093978163125366,-4.9993976023107765,-1.3480977394923568
1667080704023311000,22.37831103515625,-1.6858685357533394,-8.035949071744083,-2.8764366030618547
1667080704043253000,22.3982529296875,-2.616372000685334,-11.26444759287834,-5.160208341991901
1667080704063195000,22.41819482421875,-2.5342829155415294,-13.365077810114622,-5.225194901165366
1667080704083137000,22.438136962890624,-1.6122282761335371,-13.446099558287859,-4.228502077141404
1667080704103079200,22.4580791015625,-1.3190508009672164,-13.120327973508834,-4.39906439550817
1667080704123021000,22.47802099609375,-1.6679714984044431,-12.02443827767372,-5.825302482518554
1667080704142962000,22.4979619140625,-1.9660247629135845,-9.752534963452815,-5.357762127658725
1667080704162904000,22.517904052734377,-1.2370309816673397,-6.751207952135801,-3.0071646314293146
1667080704182846000,22.537845947265627,-0.5601286221861839,-4.451884716069698,-1.260991995230317
1667080704202788000,22.5577880859375,-0.001000116953253746,-2.7832009777426716,0.09569353986531495
1667080704222730000,22.57772998046875,0.7546271119356155,-1.716374294784665,-0.7108467146590352
1667080704242671900,22.597671875,0.5543585143521428,-1.5696435183823108,-4.249928896051645
1667080704262614000,22.617614013671876,0.16595073291808365,0.18880933819711207,-2.664877672918141
1667080704282556200,22.63755615234375,-0.622785277107358,2.104514949715137,-0.9470075866177677
1667080704302497000,22.6574970703125,-1.3755141542062161,3.5104958461165428,0.3780181240405887
1667080704322439000,22.67743896484375,-2.146073287028074,3.7781104254812,0.9946084189653396
1667080704342381000,22.697381103515625,-1.8615315382599829,3.7149335460782047,-1.0234861384034155
1667080704362323000,22.717322998046875,-0.8455283029578625,3.553407351604104,-2.5260154379338027
1667080704382265000,22.73726513671875,-0.4346013773322105,4.280846596884727,-1.833080812062323
1667080704402207200,22.757207275390623,-0.6221797124296427,5.17507507173419,-0.22832681733220814
1667080704422148900,22.77714892578125,-0.9517956976771355,6.3797904684692615,0.5984463701426983
1667080704442091000,22.797091064453124,-0.9735621238052844,7.340806998956203,1.1973995207637547
1667080704462032100,22.8170322265625,-0.6981073523342609,7.784457359662651,1.3482766031906008
1667080704481974000,22.83697412109375,0.015582769057154654,8.020840934461354,0.7648696890085935
1667080704501916000,22.856916015625,0.6131120974201709,7.938557788050174,0.34564109124466774
1667080704521858000,22.876858154296876,1.3275935883849859,8.223200074583291,0.8442427931919694
1667080704541800000,22.896800048828126,1.8137544725626706,8.573316996067762,1.805887100188434
1667080704561742000,22.9167421875,2.155900707428902,8.738294792300461,1.7214475063957273
1667080704581684200,22.936684326171875,2.3775872099637985,8.360215512657165,1.1563427032321691
1667080704601625900,22.9566259765625,1.8346843017362058,7.181381576153636,-1.4111376946426928
1667080704621567000,22.97656689453125,0.8251745201066136,5.027549345561861,-2.5531325774401425
1667080704641509000,22.996509033203125,1.167568153862655,4.945298347854614,-0.7140621695742011
1667080704661451000,23.016450927734375,0.3114996060594916,4.788077157098055,0.048731000854703596
1667080704681393000,23.036392822265626,-1.982359227120876,1.1346692160844802,-2.1479916878700256
1667080704701335000,23.0563349609375,-3.672351418675482,-3.79515625282824,-3.732700965698063
1667080704721277000,23.07627685546875,-2.937330047702789,-6.269390065598487,-3.4456463573262095
1667080704741219000,23.096218994140624,-2.6275632567852734,-7.877752313953637,-2.4054390934854744
1667080704761160000,23.116159912109374,-3.8693735816836354,-9.599489012554287,-2.00090844476819
1667080704781101800,23.136101806640625,-4.883893738821149,-11.1338233171463,-3.1419290757060048
1667080704801044000,23.1560439453125,-4.914416887378692,-12.214281635093688,-4.892717681267857
1667080704820986000,23.175986083984377,-4.366721922568977,-12.618193275129794,-4.908722475129365
1667080704840927700,23.195927734375,-3.887638429431617,-11.362273176336288,-3.979170757964253
1667080704860870000,23.215869873046874,-3.756267426985502,-9.441662257120013,-3.2130127827107904
1667080704880812000,23.23581201171875,-2.959934093698859,-7.214811552068591,-2.7176152836322784
1667080704900754000,23.25575390625,-2.527733347767591,-5.356143586546183,-2.4201351428359748
1667080704920694800,23.27569482421875,-2.529009651313722,-3.4063895749539137,-1.64064597684443
1667080704940637000,23.295636962890626,-2.518144266167283,-1.8952011681497096,-1.6622312011867761
1667080704960578800,23.315578857421876,-1.7509578246489166,-0.46363107246160506,-0.4872191610589623
1667080704980521000,23.33552099609375,-1.0739292084395884,0.9036135583102702,0.18694880502223968
1667080705000463000,23.355463134765625,-0.40814065590798854,2.0775486168563364,-0.006089256785809993
1667080705020405000,23.375405029296875,-0.366402870374918,2.7727906428873537,-0.4600768871113658
1667080705040347000,23.395346923828125,-0.43545244120359416,3.6479105126410722,0.04627046052664518
1667080705060288000,23.4152880859375,-0.4527180487811565,4.381497759157419,0.275026901447773
1667080705080230000,23.43522998046875,-0.529915270230174,5.23738510517478,0.45419016716033217
1667080705100172000,23.455172119140624,-0.2992167553305626,5.800021326267719,0.5473053809702396
1667080705120114000,23.475114013671874,0.09803133516311645,6.0906222289443015,0.003025485301017761
1667080705140055800,23.495055908203124,0.6870347541779279,6.267814779105782,-0.06994812710359692
1667080705159998000,23.514998046875,1.473947932690382,6.550660829871893,0.25453502530008554
1667080705179940000,23.534940185546876,1.5730828451812267,7.2053913972944015,-0.05952639407142996
1667080705199882000,23.554882080078126,0.8070680777907371,7.454863586246967,0.16932605457007885
1667080705219822800,23.57482275390625,0.3191232328057289,8.039078017419577,0.5179579981938004
1667080705239765000,23.594764892578127,0.48030170982070264,8.05395176142454,1.0009743007354437
1667080705259707000,23.614706787109377,0.9135328947782516,8.025837427574396,1.2735711985573173
1667080705279649000,23.63464892578125,1.1975438976705073,7.436584417712688,0.4430447960287332
1667080705299591000,23.6545908203125,1.4135744202703238,6.9252136889547105,0.43979441593065854
1667080705319532800,23.67453271484375,0.991784009194374,6.779067434442043,-0.4762278114452958
1667080705339475000,23.694474853515626,0.201893422306329,6.076101536160707,-0.3239304138917476
1667080705359416000,23.714416015625,-0.6602882015496492,4.750042317736148,-0.7720537552937865
1667080705379358000,23.73435791015625,-1.7126865461826324,2.7383254787057636,0.30795944923460483
1667080705399299800,23.7542998046875,-1.3357903388440608,0.6600023703455925,-1.2025199325174092
1667080705419242000,23.774241943359375,-1.2341186013519763,-2.1435224335014817,-2.3985388125777245
1667080705439184000,23.794183837890625,-2.547638071677089,-5.700663126415014,-2.0708479501739143
1667080705459126000,23.8141259765625,-3.678825290864706,-7.603204135933518,-1.4392673721924423
1667080705479068200,23.834068115234373,-3.388582700106501,-9.149913353452085,-2.397130991606414
1667080705499009800,23.854009765625,-2.6015385886907576,-11.344430061131716,-3.7685590455427764
1667080705518951000,23.873950927734374,-2.083838656911254,-11.462031189161538,-3.5692312359407543
1667080705538893000,23.89389306640625,-2.73815509057492,-10.501042131203413,-2.4339203609518707
1667080705558835000,23.9138349609375,-3.080359046977758,-9.63570540431738,-1.662529599611461
1667080705578776800,23.93377685546875,-3.8059032722920176,-8.987993191224335,-2.4909026234984397
1667080705598719000,23.953718994140626,-3.6363466238364577,-8.423156245216727,-2.94064779394865
1667080705618660900,23.973660888671876,-2.2787597559869286,-7.252830609339475,-2.278733744762838
1667080705638603000,23.99360302734375,-1.6728852816700934,-6.117914725017547,-1.5884563554018736
1667080705658543900,24.0135439453125,-2.046183172255754,-4.67847988730371,-1.1274024399518967
1667080705678485500,24.033485595703127,-2.3052526261150836,-2.9704443817973134,-0.9123384242966771
1667080705698427400,24.053427490234377,-2.2884812317952514,-1.61324885135293,-1.4982383243381976
1667080705718369500,24.07336962890625,-2.4184233704820275,-0.44441549986004825,-1.1175906555116175
1667080705738311400,24.0933115234375,-1.6671204345330595,0.8342138588696718,-0.26269615645650773
1667080705758253600,24.113253662109376,-1.2270166603922843,2.0360721126079557,0.2963180747469887
1667080705778195700,24.13319580078125,-1.0786414777837694,3.2895190992861982,0.6805624894239009
1667080705798136600,24.153136474609376,-0.9027052112936973,4.1421991736948485,-0.16576083636917172
1667080705818078500,24.173078369140626,-0.8438017714262008,3.8051346260070797,-1.3892270377382636
1667080705838020600,24.1930205078125,-0.4159901272993535,3.8345004212230442,-1.274140522877872
1667080705857962500,24.21296240234375,0.18859708368591963,5.106771935358643,-0.11128485755510628
1667080705877904400,24.232904296875,0.2396585778813809,6.158760530146956,0.3593621580831706
1667080705897846500,24.252846435546875,-0.21324542192593215,6.713947604277729,0.177247349088639
1667080705917788400,24.272788330078125,-0.32420141285285353,6.857331408339738,-0.632998774216324
1667080705937730600,24.29273046875,-0.2698059519290924,6.720028385496139,-1.0742921965330838
1667080705957671700,24.312671630859374,-0.06942015770673751,7.193156769621372,-0.7356938634067773
1667080705977613600,24.332613525390624,0.3226290489695966,7.994599408745765,-0.11983327099606395
1667080705997555500,24.352555419921874,0.7681845126450061,8.124412368094921,0.057499126027524466
1667080706017497600,24.37249755859375,0.7269383100211619,7.811998277539014,-0.13946516931355
1667080706037439500,24.392439453125,0.24242453546337783,7.45228409114778,-0.41707171199098225
1667080706057382700,24.412382568359376,0.007222279403731226,7.293450204497575,-0.5320246635995804
1667080706077324500,24.432324462890627,0.5613934910228475,6.931302653479576,-0.20308635841794312
1667080706097266400,24.452266357421873,0.4238707244813442,6.0118812851846215,0.7336050744339824
1667080706117207600,24.47220751953125,0.314314955741167,4.6890486275911325,0.7335984254974871
1667080706137149700,24.492149658203125,-0.33203820742573587,3.3492215805768963,0.9852440129663794
1667080706157091600,24.512091552734375,-1.8182758955098688,2.260018230637908,-0.2289001967733726
1667080706177033500,24.532033447265626,-2.851208346042037,-0.8482166652590036,-0.8851806605190038
1667080706196975400,24.551975341796876,-1.3530144453674553,-3.2855145398199554,0.3127332395076752
1667080706216917500,24.57191748046875,-0.26971184390485287,-4.038625401973724,0.26325200024098155
1667080706236859600,24.591859619140624,-0.5449532648861408,-4.88982137530446,-0.7825441696479916
1667080706256801500,24.611801513671875,-1.330016139356792,-6.349749550470709,-1.9511974883988499
1667080706276742400,24.631742431640625,-1.325683663110435,-7.409304196599125,-1.5389213401213286
1667080706296684500,24.6516845703125,-1.8638687490358947,-7.830347004178166,-0.8551753252904861
1667080706316626400,24.67162646484375,-2.707285320536792,-7.562047949680686,-0.6175449653010815
1667080706336568600,24.691568603515623,-3.158430713173747,-7.6075453800082204,-1.4273112691998482
1667080706356510700,24.7115107421875,-3.2250971882581707,-8.315997600746154,-1.8393439641103146
1667080706376452400,24.731452392578124,-3.191918556755781,-8.809006158861518,-1.963808255907893
1667080706396394500,24.75139453125,-2.946713085336983,-8.481277594795822,-1.3967438431091606
1667080706416335600,24.771335693359376,-2.426380174705386,-7.394521053487062,-1.1427324032917618
1667080706436277500,24.791277587890626,-2.274736491820216,-6.437660473635792,-0.6144678959432989
1667080706456219400,24.811219482421876,-2.336223810701072,-5.802614849892258,-0.537643453329429
1667080706476161500,24.83116162109375,-2.240539915446937,-5.31828819540441,-1.3260700320795178
1667080706496103400,24.851103515625,-1.533695129905641,-4.284716716316342,-0.9983393491219729
1667080706516045600,24.871045654296875,-1.478174025952816,-2.8730852468073365,-0.11734160031080246
1667080706535987700,24.89098779296875,-2.570922501152754,-1.142532204544544,0.2638578937122598
1667080706555928600,24.910928466796875,-2.7673043204307555,0.12516191867291926,0.28035368596110494
1667080706575870500,24.930870361328125,-2.5428525909662247,0.6849830823451281,-0.2806894389878027
1667080706595812600,24.9508125,-1.5219804344534873,1.5726549751579761,-0.5269540823370218
1667080706615754500,24.97075439453125,-0.12003858430981636,2.45087924066782,-0.8934285566434264
1667080706635696400,24.9906962890625,0.5200350967288017,3.4817408762753006,-1.015778925026953
1667080706655638500,25.010638427734374,0.370823061437346,4.659758235698938,-0.6560761368125677
1667080706675580400,25.030580322265624,-0.056815564210154115,6.052582713407277,-0.6575622837170958
