time,seconds_elapsed,z,y,x
1667080616004610300,0.0366103515625,-2.392420621958375,-0.20269991638362406,0.11976705562574788
1667080616024552400,0.056552490234375,-2.3760581007003783,-0.0539969631254673,0.3578808334842324
1667080616044494300,0.076494384765625,-1.904443628269434,0.026619711378216743,0.5959624443724751
1667080616064436200,0.096436279296875,-1.824134412279725,-0.038624621948599815,0.28792846859693527
1667080616084378400,0.11637841796875,-2.435833647227287,-0.28993922389745713,-0.49398120253980154
1667080616104320300,0.1363203125,-2.1624536362037063,-0.8171417280375957,-2.0717603888437153
1667080616124262400,0.156262451171875,-1.5516875904530285,-0.4404933579802513,0.6625248745605349
1667080616144204300,0.176204345703125,0.01059241342395544,-0.04011456824541092,-0.24016281934278083
1667080616164146200,0.196146240234375,0.8582970375075936,-0.19323007724881172,-0.367022207849659
1667080616184088300,0.21608837890625,1.5052140085697172,-0.11558978820741175,0.23036066124737262
1667080616204031200,0.23603125,0.6911667394161224,0.1504617796242237,0.26120295875668526
1667080616223973400,0.255973388671875,-0.04576543361395597,0.35314416035115714,-0.0350526452133432
1667080616243915300,0.275915283203125,-1.586627678669989,0.40699850013554095,-0.1335960215518251
1667080616263857400,0.295857421875,-1.8250225932911037,1.1090285788714884,-0.30151659323815255
1667080616283799300,0.31579931640625,-0.8888076188445091,1.8050071024835108,0.1824994243979454
1667080616303741200,0.3357412109375,-0.2448743397682905,1.520541341561079,0.6669347999572753
1667080616323683300,0.355683349609375,-0.5901119647786021,0.11605039145648478,-0.04615797659549862
1667080616343625200,0.375625244140625,0.3798237852230668,0.4742202710151672,-0.45652043673880394
1667080616363567400,0.3955673828125,1.063560959160328,0.40806525258421894,-0.13878800070434807
1667080616383509200,0.41550927734375,0.12242168005406856,0.23903321252465246,0.3277560365945101
1667080616403452200,0.4354521484375,0.4918190560698509,0.605179477789998,0.48509442398995156
1667080616423394300,0.455394287109375,1.58678403827548,0.4088531880915165,0.9581175941750407
1667080616443336200,0.475336181640625,0.7613511594936251,-0.024752163940668103,0.3309326573366299
1667080616463278300,0.4952783203125,-0.21004794105887412,-0.3375976316511631,-0.68290919868052
1667080616483220200,0.51522021484375,-0.1305357206657529,0.04751695345640182,-0.06852032279018312
1667080616503162400,0.535162353515625,-0.10000336588844656,0.2500204704850912,0.7668354361236095
1667080616523104300,0.555104248046875,0.7333880706824362,-0.08649345758259296,0.16419656446082517
1667080616543046100,0.575046142578125,1.4808034976735711,-0.5427350043147802,0.1931017381614074
1667080616562988300,0.59498828125,1.5338364380724727,-0.3315881621032953,0.32336277007162567
1667080616582930700,0.6149306640625,1.069612514284253,-0.5722656347036361,-0.2525035194724798
1667080616602873900,0.634873779296875,1.2163821613922714,-0.6291565657049417,-0.42289281935989853
1667080616622815700,0.654815673828125,1.833188217959553,-0.8187737131536006,-0.0898880684569478
1667080616642757600,0.674757568359375,2.3659143078267575,-0.7672165443956851,-0.034950609610974785
1667080616662699800,0.69469970703125,2.099099938929081,-0.49636663637161255,-0.051883039711415765
1667080616682641700,0.7146416015625,0.9565431844651698,-0.13696984536647797,-0.093205522441864
1667080616702583800,0.734583740234375,0.13317176825776694,-0.4535954161375761,-0.8316589136898517
1667080616722526000,0.75452587890625,0.37188115565553304,-0.40291503021419045,-0.3600397650837898
1667080616742467800,0.7744677734375,0.05272153636217117,-0.09240940362811088,0.12977613447010516
1667080616762409700,0.79440966796875,-0.1492345759168267,-0.33011458241939545,-0.33931846409440036
1667080616782352600,0.8143525390625,-0.2310924826532602,-0.28872575645446774,-0.4358353030413389
1667080616802294800,0.834294677734375,-0.9870970204219222,-0.13110241463780403,-0.2809767497628927
1667080616822236700,0.854236572265625,-1.3939056970737873,0.060144379839301106,0.1848418958708644
1667080616842178800,0.8741787109375,-1.5709282974958418,0.6310849034190178,0.7041469247594475
1667080616862121000,0.894120849609375,-0.8258347375810146,0.660674570518732,0.4706333524391055
1667080616882062600,0.9140625,-0.6305731545045972,0.3012146511495113,0.13738864616728386
1667080616902004700,0.934004638671875,-1.1430645578555763,0.28995968216359613,0.042715096999472006
1667080616921947000,0.95394677734375,-1.012305842088908,0.3013987755447626,0.053456563505297525
1667080616941888800,0.973888671875,-0.31918256177753207,0.6380056425929069,0.5776730467051268
1667080616961832000,0.99383203125,-0.10558715737015008,0.6809913823604583,0.809962630188465
1667080616981773800,1.01377392578125,-1.1057365515887736,0.536554854375124,0.45206806043982506
1667080617001715700,1.0337158203125,-1.1947370235562325,0.371589333102107,0.03721241706311702
1667080617021657600,1.05365771484375,-0.2273977197885513,0.13025076624453066,-0.0074193363457918165
1667080617041599700,1.073599853515625,0.8965221387445926,0.14391981063485146,0.16989274854213
1667080617061542000,1.0935419921875,1.2963207905039191,0.030665187376737593,0.019850692167319356
1667080617081483800,1.11348388671875,0.01821194851696491,-0.08348667698204516,-0.058954877793788905
1667080617101426000,1.133426025390625,-0.7018678739115596,0.40786826870739457,0.41646274977978315
1667080617121367800,1.153367919921875,-0.6428039827853441,0.07017068381309509,0.5990504735156893
1667080617141310700,1.173310791015625,-0.16350480107069015,-0.28131401889324187,-0.29573183582425117
1667080617161252900,1.1932529296875,0.3892345876470208,-0.5108078341782093,-0.2519929761344567
1667080617181194800,1.21319482421875,0.6092810678899288,-0.5463280603706836,-0.44586745223402974
1667080617201137000,1.233136962890625,0.8823878149300813,-0.2401648469030857,-0.4301727472350001
1667080617221078800,1.253078857421875,0.07908230454325675,0.15935995635092257,0.3382996424406767
1667080617241020700,1.273020751953125,-1.210373860888183,0.22471534883677957,0.1410211483175866
1667080617260962800,1.292962890625,-1.5604454819262026,-0.1513847396880388,-0.5807733508080244
1667080617280904700,1.31290478515625,-0.7211199791312217,-0.2523205641210079,-0.5234294153422117
1667080617300846800,1.332846923828125,-0.642908612203598,-0.13622048830389977,0.21728578335791826
1667080617320789800,1.352789794921875,-1.6856898181855677,-0.20963293051719664,0.028638942246139047
1667080617340732000,1.37273193359375,-1.640446362619102,-0.615754063296318,-0.12802520828270353
1667080617360673800,1.392673828125,0.6785913354814053,-0.7382640061557293,0.3208922883048653
1667080617380615700,1.41261572265625,2.2461399274110794,-0.8451040861964225,0.6044523325592279
1667080617400557800,1.432557861328125,1.3264336046949028,-1.5556810440033673,-0.2391913256958127
1667080617420499700,1.452499755859375,0.5460989277899265,-1.2467092028558253,-0.45672553085684775
1667080617440441900,1.47244189453125,1.171975448910892,-0.7838795099049806,-0.42394408197849986
1667080617460383700,1.4923837890625,2.3725626598000527,-0.9304992271482944,-0.633936201196909
1667080617480325600,1.51232568359375,2.588743112264573,-0.37574528373777866,-0.4354290603280067
1667080617500268800,1.532268798828125,1.9601123239994047,0.0015215104788541792,-0.15513620117604732
1667080617520210700,1.552210693359375,0.9338695803642273,0.06415069287121296,-0.19686258853226898
1667080617540152800,1.57215283203125,0.4531142084918916,-0.016079028141498565,-0.7479509951725601
1667080617560094700,1.5920947265625,1.9365851718090474,0.5572574506640434,-0.37918548731952906
1667080617580035600,1.61203564453125,2.65869664619565,0.7903098352134227,0.4095473078355193
1667080617599977700,1.631977783203125,1.7633739463686942,0.5928583408772945,-0.4244669368088245
1667080617619920000,1.651919921875,1.287943130519986,0.37473464539051055,-0.41116731025278563
1667080617639861800,1.67186181640625,1.8048305768728254,0.6367588574022054,-0.3686281452089548
1667080617659803600,1.6918037109375,1.189214314612001,1.163821660810709,0.17876873170332983
1667080617679745800,1.711745849609375,0.24459362313076852,1.318773737591505,0.8213102458938956
1667080617699688700,1.731688720703125,-1.3707042697064578,0.4931798230290413,-0.15799454974923283
1667080617719630600,1.751630615234375,-1.9992615543439982,0.7309276719182729,0.0005955912729725242
1667080617739572700,1.77157275390625,-1.3970599233210086,0.5401239450335502,0.06118424428105354
1667080617759515000,1.791514892578125,-2.0473001935869455,-0.028936171627044677,-0.5327960863634944
1667080617779456500,1.81145654296875,-2.5944483381688594,-0.06402618970870971,-0.33202655352056026
1667080617799398700,1.831398681640625,-3.215734316629171,-0.12755261320173739,-0.18472237941073252
1667080617819340800,1.8513408203125,-2.8036493070095774,-0.09622048634886742,-0.14801349142296238
1667080617839282700,1.87128271484375,-2.0343641396462915,-0.07237199324965476,0.35272359685152765
1667080617859224800,1.891224853515625,-2.1141250741034745,0.08869593606293201,0.16663579257279634
1667080617879167700,1.911167724609375,-3.1664006691396236,0.1445709680199623,-0.14891688826978206
1667080617899110000,1.93110986328125,-3.5200878503262993,0.3275064457476139,-0.4391667855516076
1667080617919051500,1.951051513671875,-3.2382188278988,0.48114159471094603,-0.22234366953568532
1667080617938993700,1.97099365234375,-2.928852142214775,0.35480361799597737,0.21714666714817285
1667080617958935800,1.990935791015625,-3.1848867584228513,0.32681261826455593,0.1449807178646326
1667080617978877700,2.010877685546875,-2.635076116633415,0.09513269111216067,-0.030304834198323076
1667080617998819800,2.03081982421875,-1.7814309965848922,-0.010296353086829186,0.018261340616643428
1667080618018761700,2.05076171875,-1.4517534904085099,0.2952992896258831,0.5835001454234123
1667080618038703600,2.07070361328125,-1.4371370821654796,0.3473474567711353,0.5029585819825529
1667080618058646800,2.090646728515625,-1.938674837564677,0.18405600619018075,0.22920915312469003
1667080618078588700,2.110588623046875,-2.7239526699602603,0.5243325016617775,-0.27641280284821984
1667080618098530800,2.13053076171875,-2.438598435765505,0.40437867302596564,-0.7850254650697112
1667080618118472700,2.15047265625,-1.139946718095988,0.6249719734966754,-0.03401888171881437
1667080618138414600,2.17041455078125,-0.4648061075903475,0.5633201117038726,0.562489506098628
1667080618158356700,2.190356689453125,-1.697048101415485,1.182201367110014,0.6135226509824395
1667080618178298600,2.210298583984375,-1.9699374063126742,1.4178846846848725,-0.05281009599503595
1667080618198240800,2.23024072265625,-0.9322998468294739,0.939545287913084,-0.6552087063282728
1667080618218183000,2.250182861328125,0.42994697565510864,0.6523223372370004,0.4706713463619351
1667080618238125800,2.270125732421875,0.4313603495843708,0.35063422335684297,0.8653706291556358
1667080618258068000,2.29006787109375,0.2046260621406138,0.32566461727321144,0.3805754803732037
1667080618278009600,2.310009521484375,0.13912673113942145,0.005275894576311111,-0.8380076981946826
1667080618297951700,2.32995166015625,1.145984975346923,-0.8878425732046366,-1.1871028754159807
1667080618317893600,2.3498935546875,2.531016607221961,-0.7464888136655092,-0.5585317083835601
1667080618337835800,2.369835693359375,3.8422266315609215,-0.11090952143669128,0.9708496499761938
1667080618357778000,2.38977783203125,3.9511166298687455,-0.3757750943541527,0.8568138132125138
1667080618377719600,2.409719482421875,1.6906640994668005,-0.8414999242246151,-0.573897619819641
1667080618397661700,2.42966162109375,1.4439824180155991,-0.8250210831105709,-0.8724401291504502
1667080618417604600,2.4496044921875,3.048918783575296,-0.9809025496959686,-0.22628537463247775
1667080618437546800,2.469546630859375,4.096820401310921,-0.8460831603616475,0.264308505290281
1667080618457489000,2.489489013671875,2.7129186502486466,-0.9580974281698464,0.505576947787404
1667080618477430800,2.5094306640625,1.0634804412700236,-0.8647960441380739,-0.354748380677402
1667080618497372700,2.52937255859375,1.7885212471067904,-0.8927636629939079,-0.8918968170315027
1667080618517314600,2.549314453125,3.2104701124906536,-0.8725982423216104,-0.05526480023735202
1667080618537256700,2.569256591796875,3.480579139019549,-0.7420908709675074,-0.13301468713306822
1667080618557198800,2.58919873046875,2.7982912871077654,-1.0007178417563438,-0.11293313621878623
1667080618577141000,2.60914111328125,2.4701766463339325,-0.4845259764522314,-0.25809213325977326
1667080618597084200,2.629084228515625,1.9137226210072635,-0.574444147786498,-0.1042249291062355
1667080618617026000,2.649026123046875,2.1701395145311952,-0.557043515652418,-0.29210516975969075
1667080618636968000,2.668968017578125,2.4203216053187844,-1.3261100718289613,-0.8053554286539554
1667080618656909800,2.688909912109375,1.9468547830194234,-1.1958207271397112,-0.8014446849510073
1667080618676852000,2.70885205078125,-0.07376724700033664,-0.34402854148149487,-0.3055789838388562
1667080618696794000,2.728794189453125,0.30137247205972667,-0.5174392350167035,-0.20890666206926106
1667080618716736000,2.748736083984375,0.8639655846633016,-0.6629688189357519,0.20895811826186253
1667080618736678000,2.768677978515625,1.3225287062108515,-0.0909276406377554,-0.10865852763950824
1667080618756620000,2.7886201171875,0.19712533112168312,-0.26446108376979827,-0.9525862635329365
1667080618776563000,2.80856298828125,-0.7732610852569342,-0.1373784261673689,-0.8758078520178795
1667080618796505000,2.828505126953125,0.38629561158567666,0.3592500760108232,0.2404503858461976
1667080618816447000,2.848447021484375,0.9906658188194036,0.4181412409186363,0.9094616998165845
1667080618836389000,2.86838916015625,-1.0679580250754952,1.0090472786843776,0.5458429072022438
1667080618856330800,2.888330810546875,-2.109730638536811,1.1465279961824417,-0.05516425333917141
1667080618876273000,2.90827294921875,-0.5996859949402511,0.9112854081124067,-0.40608489242196083
1667080618896215000,2.928215087890625,-0.4699548686556518,0.6866945624381303,-0.32485037828087804
1667080618916157000,2.948156982421875,-1.5237104731164872,1.0898030693978071,0.5669508694216608
1667080618936100000,2.96810009765625,-2.6233725270971653,1.6088818883150815,0.1975277744427323
1667080618956042000,2.9880419921875,-2.7723583889499306,1.1582944218218325,-0.2510696872770786
1667080618975984000,3.007984130859375,-3.1053532029807567,0.5961655657291413,-0.16565496484190226
1667080618995926000,3.027926025390625,-3.8852968347415326,0.2988309708833694,-0.6196414261236787
1667080619015868000,3.047867919921875,-4.057326303051412,0.8595949683636427,-0.028587787447636945
1667080619035810000,3.06781005859375,-3.7506264984890816,1.3491355581074953,0.5849056283071636
1667080619055752000,3.087751953125,-4.122937131603062,1.0368886408120392,0.18987433708012103
1667080619075694000,3.107694091796875,-4.423372907334566,0.3146972330570221,-0.8948553745761513
1667080619095636000,3.127635986328125,-2.6902812865048644,0.24713936209082601,-0.6244406430989503
1667080619115579000,3.147578857421875,-1.8913357248932121,0.49440907256305217,0.5521373311713338
1667080619135521000,3.16752099609375,-2.7094462979629634,0.35657355027794835,0.5818225676000118
1667080619155463000,3.187462890625,-3.371634487915039,-0.010888473761081695,0.1767430528283119
1667080619175405000,3.207405029296875,-3.0517794337034223,0.08706862712204456,-0.4422621212184429
1667080619195347000,3.227346923828125,-2.7793299815282224,0.44399172149002547,-0.35977731475532054
1667080619215288800,3.247288818359375,-2.476923197984695,0.8775836295187472,0.09217033417522907
1667080619235231000,3.26723095703125,-1.6604641915142535,0.3335048093795776,0.15942922219485042
1667080619255172900,3.2871728515625,-1.8048343762651085,0.05208323845863342,-0.4394882725909352
1667080619275115000,3.307114990234375,-1.9254041448421775,0.01321662444770336,-0.8788888668984174
1667080619295058000,3.327057861328125,-1.8285715179443358,0.49776715081930156,-0.41547435979694125
1667080619315000000,3.347,-1.599803971107304,1.2340513813346623,0.8376429565355181
1667080619334942000,3.36694189453125,-0.641782238522172,1.0796008243352173,0.9057689827784895
1667080619354883800,3.3868837890625,0.3662719374716282,0.4671534013688564,-0.1570776906326413
1667080619374826000,3.406825927734375,0.21761399239897727,0.01175181259214878,-0.5703592165604233
1667080619394768000,3.426767822265625,0.16206161652505396,-0.036727848416566844,-0.21283435690701005
1667080619414710000,3.4467099609375,1.1364137216642498,0.19348142166137694,0.39847975118048484
1667080619434652200,3.466652099609375,1.8423098281785846,0.5159831909894943,0.7816893794495612
1667080619454595000,3.486594970703125,2.0014720700003203,-0.03957739262878895,-0.53524969006069
1667080619474537000,3.506536865234375,2.4378012940384446,-0.5873953992962837,-0.2161244114283472
1667080619494478800,3.526478759765625,2.4128498081333936,-0.42039165019392966,-0.18565562340654432
1667080619514421000,3.5464208984375,2.9580910961806772,-0.48667467891871924,-0.09315474210269749
1667080619534363100,3.566363037109375,3.639042731052637,-0.6124713883638382,0.23058453313112257
1667080619554305000,3.586304931640625,3.3288737890750166,-0.9947311685621738,-0.2583364634096622
1667080619574247000,3.606246826171875,3.419197326339781,-0.8823065663874149,-0.2452504065390676
1667080619594189300,3.626189208984375,3.907735753303766,-0.4306500093579292,0.2843903575986624
1667080619614131500,3.64613134765625,4.145047548863292,-0.037970541954040524,0.23649222280494867
1667080619634074400,3.666074462890625,4.208104016757011,-0.3594441372781992,-0.6176680802240967
1667080619654016500,3.6860166015625,4.699568852561712,-0.7915449299663305,-0.9794988203778863
1667080619673958700,3.705958740234375,4.416439308679103,-0.664039078515768,-0.416437724936381
1667080619693900500,3.725900634765625,3.795498198133707,-0.14185644836425781,0.23832765807118264
1667080619713842400,3.745842529296875,2.5460589857921003,0.2544593297153711,0.35756055202130227
1667080619733784300,3.765784423828125,2.4116617673926055,0.2531406483322382,0.17025303322188556
1667080619753726500,3.7857265625,3.227074041289091,-0.8281833465337752,-0.5686340002030134
1667080619773668600,3.805668701171875,3.5511399911940096,-0.949377530619502,-0.28071985239237546
1667080619793611500,3.825611572265625,1.9713693388119338,0.0071615621924400324,0.4286024291783571
1667080619813553700,3.8455537109375,0.4315688777685165,0.7913432699143886,0.8069760155931115
1667080619833495300,3.865495361328125,-0.012745792065560818,0.08800620023310184,-0.8812342609807848
1667080619853437400,3.8854375,0.452933445097506,-0.910911898624897,-1.3714198706299066
1667080619873379600,3.905379638671875,0.853469763481617,-0.7890554512381553,-0.34210166507214307
1667080619893321500,3.925321533203125,0.1343994103565812,0.3772545192569494,0.4481690071746707
1667080619913263600,3.945263671875,-0.029663316857814787,1.4568711256831883,0.5963993744850158
1667080619933204500,3.96520458984375,-0.07279810970723628,1.4784019894897937,-0.1506829937600065
1667080619953146400,3.985146484375,-1.2026289458498358,0.0207657246530056,-2.1723621590167284
1667080619973088500,4.005088623046875,-1.7664321648955343,-0.7097323236763476,-1.6391791191622613
1667080619993031400,4.025031494140625,-2.7020678781494496,0.8018336842685937,0.7707689761802554
1667080620012973600,4.0449736328125,-3.700989191877842,1.9817150839984417,0.9890689050167798
1667080620032915700,4.064915771484375,-3.4327661252260206,0.6092763917148113,-1.6383809545218944
1667080620052857300,4.084857421875,-2.074737358827889,-0.02168108593225479,-1.4891598226085305
1667080620072799500,4.104799560546875,-2.801685021199286,-0.46225803054273124,-0.9964788890123367
1667080620092741400,4.124741455078125,-6.00356646130383,-1.3579770362108945,-1.085948147535324
1667080620112683500,4.14468359375,-7.1189715894699095,0.8650818753421307,-0.4499404007613659
1667080620132625700,4.164625732421875,-5.109333894801139,1.8673235656648872,0.4200912059426307
1667080620152568600,4.184568603515625,-1.9877520260751247,1.8837386938929557,0.9172001851141452
1667080620172510500,4.204510498046875,-0.3446820369541645,1.234725335073471,0.5223530182823538
1667080620192452400,4.224452392578125,-1.8672095838963985,0.9280489113867282,-0.3057315440520644
1667080620212394500,4.24439453125,-3.7436473071262237,1.2922381973654031,0.05381224507517181
1667080620232336600,4.264336669921875,-4.209679303249716,1.5486352171450852,0.7134533900260925
1667080620252278500,4.284278564453125,-3.818483352401852,1.4255343226552009,0.8055439369633793
1667080620272220400,4.304220458984375,-3.416226493835449,1.0003934321075678,0.4780526887848973
1667080620292162300,4.324162353515625,-3.78660557436496,0.9797972188025712,0.13040360958552918
1667080620312105500,4.34410546875,-3.7755356065571304,1.2671557785570622,-0.1605988504961133
1667080620332047400,4.36404736328125,-2.7261042950361967,1.3904676854491234,0.1757484888330102
1667080620351989500,4.383989501953125,-1.656528021109104,0.9250117356479167,0.681178429365158
1667080620371932400,4.403932373046875,-0.7919894588634371,0.6531769082397222,0.39800679990649224
1667080620391874600,4.42387451171875,-0.6890571999162435,0.8606547065496444,0.27618191670179365
1667080620411816700,4.443816650390625,-1.61583156132251,0.5811275710731745,-0.3513283431008458
1667080620431758300,4.46375830078125,-1.6529177216574549,0.07078676988482475,-0.8593903857022523
1667080620451700500,4.483700439453125,-0.12270020473450421,-0.27457097437381744,0.05125349136991426
1667080620471642400,4.503642333984375,1.20865448974967,-0.5703419731646776,0.11609247703254222
1667080620491584500,4.52358447265625,0.8770493765115738,-0.817863028049469,-0.22375644067674874
1667080620511527400,4.54352734375,0.5072960266649723,-0.8278969308078289,-0.888421542136371
1667080620531469600,4.563469482421875,1.0246211337827145,-0.687652009293437,-1.1707871159091592
1667080620551411500,4.583411376953125,2.8062609508126974,-0.5508177730053663,-1.1019716460973024
1667080620571353300,4.603353271484375,4.655514606779813,-0.8093027049750089,-0.5696262261107564
1667080620591295200,4.623295166015625,4.269293521735072,-1.0381956317573786,-0.8206827616453171
1667080620611237400,4.6432373046875,3.719999012774229,-0.9117869278937578,-1.12471071664989
1667080620631179300,4.66317919921875,3.9588770347371693,-0.4473538913995027,-0.7280451022192835
1667080620651121400,4.683121337890625,3.7752190879538654,-0.03110416331589222,-0.37605566486120223
1667080620671064300,4.703064208984375,3.39880540343523,0.08588555481731891,-0.39373073002249
1667080620691006200,4.723006103515625,3.4293665459156033,-0.305831205034256,-0.9319833282262087
1667080620710948400,4.7429482421875,4.071385515803098,-0.41222704843878744,-0.6976274598628283
1667080620730890200,4.76289013671875,3.7724458238482472,-0.21113924342691898,-0.7398194189041852
1667080620750832400,4.782832275390625,3.512762622004747,-0.01610708519220352,-0.8281868536651134
1667080620770774300,4.802774169921875,3.6866789269745346,-0.0009130231916904449,-0.39915012472271916
1667080620790716200,4.822716064453125,3.430736665225029,-0.23740181193053722,-0.5074374809622765
1667080620810659000,4.8426591796875,2.6700223423302174,-1.0388181475698948,-0.9321320890471338
1667080620830601200,4.862601318359375,2.0553619194895028,-0.4920049340307712,-0.707260672865808
1667080620850543400,4.88254345703125,2.385503097654879,0.2554395729243755,0.40217502550184725
1667080620870485200,4.9024853515625,3.124877695401013,0.14333295065760612,0.27960666698608544
1667080620890427400,4.922427490234375,2.487229487943649,-0.7373427996575832,-0.7861717124953865
1667080620910369300,4.942369384765625,1.6791791211172937,-0.8993816198289394,-0.9999363359898328
1667080620930311200,4.962311279296875,0.9277364844366908,0.08666939867138862,0.17583262345250694
1667080620950253300,4.98225341796875,0.4797679682701826,0.6866904707849025,0.5663818373620509
1667080620970196200,5.0021962890625,-0.3791534847460687,0.7308972767800093,0.06283992079989985
1667080620990138400,5.022138427734375,-0.3274585149526596,0.16385492968261242,0.025849603788554668
1667080621010080300,5.042080322265625,0.13607918013706802,-0.2469745269179344,0.4241747123965993
1667080621030022400,5.0620224609375,-0.5514437959492207,0.17144728450775146,0.43220951375961303
1667080621049964300,5.08196435546875,-2.1557167291641233,0.7343710903704166,0.08698533275276422
1667080621069906200,5.10190625,-3.545481234779954,0.8475292675167322,-1.2574009850010275
1667080621089848300,5.121848388671875,-3.6721801537618037,0.5454501084923744,-1.1669210150655358
1667080621109790200,5.141790283203125,-2.735772871613502,0.6986328375130891,-0.21030396164655685
1667080621129733400,5.1617333984375,-2.337391685436666,0.7437620190501213,0.0616308920700103
1667080621149675300,5.18167529296875,-2.9236498973965643,0.9651321491122246,-0.5259872831314801
1667080621169617200,5.2016171875,-3.550893322956562,1.3664958582311868,-0.8661559343144297
1667080621189559300,5.221559326171875,-4.011571098570525,1.4466934305399655,-1.2151186442624777
1667080621209501200,5.241501220703125,-4.105439761096239,0.8472352530062198,-0.6332096404880285
1667080621229443300,5.261443359375,-5.069671746498346,0.3481763088107109,-0.8249159422356634
1667080621249385500,5.281385498046875,-5.702760975477099,0.453552746039629,-1.020753498569131
1667080621269328400,5.301328369140625,-4.575868238613009,0.9834370366096497,-0.5436573798567056
1667080621289270300,5.321270263671875,-3.69066975017637,0.766799195766449,-0.24448676522281018
1667080621309212200,5.341212158203125,-2.8909388834059238,0.3295534414052963,-0.3122121382430196
1667080621329154300,5.361154296875,-2.5290949915096164,0.3679647128641605,-0.05744852835144847
1667080621349096200,5.38109619140625,-2.8872251235798,0.3589899637699127,-0.5626485325852408
1667080621369038300,5.401038330078125,-3.591823006977141,0.3298626534849405,-0.5978779226049781
1667080621388980500,5.42098046875,-3.2821091152906416,0.7118249120414256,0.04576601813584566
1667080621408922000,5.440922119140625,-2.294360645222664,0.5847556984424591,-0.02648907073587179
1667080621428865300,5.460865234375,-1.9145581950485706,0.09732698628604411,-0.052960605815052984
1667080621448807200,5.48080712890625,-2.098935688278079,0.05972410860061645,0.25644904222786424
1667080621468749300,5.500749267578125,-2.2210312051177024,0.23517712161839008,0.000023088614642620085
1667080621488691500,5.52069140625,-1.732428188484907,0.8905717059075832,0.14081658392250537
1667080621508633300,5.54063330078125,-1.1045604935467244,0.9801631295055151,-0.14464286421239375
1667080621528575200,5.5605751953125,-1.4071031784296035,-0.14476502928733825,-0.857738526841998
1667080621548517000,5.58051708984375,0.3647762920863926,-0.34071488688886165,-0.5911097436442971
1667080621568459300,5.600459228515625,2.192200831952691,0.42188568814396854,0.0005646481454372405
1667080621588402000,5.62040185546875,3.280368409103155,0.5053852246075868,0.23843553889244792
1667080621608343800,5.64034375,3.007612959718704,0.13055062597393988,-0.46792610277440394
1667080621628285700,5.66028564453125,3.311110753369331,-0.5060071558982133,-1.22142074008137
1667080621648227600,5.6802275390625,5.6476142577946185,-1.0289122551053762,-1.1765788510531185
1667080621668169700,5.700169677734375,5.979067395341396,-0.7608733128488063,-1.0266118692085147
1667080621688111900,5.72011181640625,4.751012916333973,-0.3610761223942041,-0.5147920084435492
1667080621708053800,5.7400537109375,4.360984547960758,-0.3039215720206499,-0.8237219832107424
1667080621727997000,5.759996826171875,4.813087095192074,-0.7479355053424834,-1.5123971980720758
1667080621747938600,5.7799384765625,5.291974773496389,-0.1799415566086769,-0.4608488578645512
1667080621767880700,5.799880615234375,5.500128863632678,0.5847013379067182,-0.04136844076402485
1667080621787822800,5.81982275390625,5.714412250304222,0.4316606477051973,-0.3363630848875269
1667080621807764700,5.8397646484375,4.841576107573509,0.19884850165247916,-0.5239770758202299
1667080621827707000,5.859706787109375,3.5212814440250395,0.25447043563127514,-0.4920905664876103
1667080621847648500,5.8796484375,3.8234851062119004,0.037030630755424496,0.03667114979326725
1667080621867590700,5.899590576171875,3.5980446579709646,-0.2556716281145811,-0.10558601572583429
1667080621887533600,5.919533447265625,2.199596641292423,-0.37898645761609073,-0.15730565416961909
1667080621907475700,5.939475830078125,1.8027463179446757,-0.2887614122897386,-0.637298663367331
1667080621927417900,5.95941796875,1.5074549193643032,-0.8471557580292224,-1.0467594619631766
1667080621947359700,5.97935986328125,0.8758280180230736,0.20826982547044753,0.4622393258422613
1667080621967302000,5.999302001953125,0.5466752663731574,0.17682020971775053,0.38232787699848414
1667080621987243800,6.019243896484375,0.08336100477576255,-0.6983131040394306,-0.8470318393886089
1667080622007185700,6.039185546875,-0.9931085357964038,-0.7585363943338393,-0.21657851187139748
1667080622027128600,6.059128662109375,-1.4796001132331789,0.1328150637745857,0.321706271568872
1667080622047070700,6.07907080078125,-0.9998378440514206,0.576057428202033,0.30839787718448786
1667080622067012900,6.099012939453125,-0.8598761233925819,0.49099371116161344,-0.574269083480537
1667080622086954800,6.118954833984375,-2.7497955517470833,0.6428104125261307,-1.045181252861023
1667080622106896600,6.138896728515625,-3.8021155704468486,1.3742302518755196,-0.39911534567028284
1667080622126838800,6.1588388671875,-3.9145708600208162,1.4358610708802937,-0.21321860698424278
1667080622146780700,6.17878076171875,-3.2835154749572277,1.9577052628576754,-0.0682879388064146
1667080622166723800,6.198723876953125,-3.1849367350444195,1.3053244734317064,-0.73035272157453
1667080622186665700,6.218665771484375,-3.8738440050959584,0.44744799942374225,-1.1713795288443565
1667080622206608000,6.23860791015625,-4.445021844562888,1.0149018499314784,-0.8241445925369858
1667080622226549500,6.258549560546875,-5.431230683973431,1.8747510853171347,-0.33990824668109415
1667080622246491600,6.27849169921875,-5.961076396098733,1.5142776049911975,-0.3887441737815738
1667080622266433800,6.298433837890625,-5.208427890759706,0.8683154504358768,-0.6861192467682063
1667080622286375700,6.318375732421875,-3.9607752695739267,0.9571440729677677,-0.21654577864557503
1667080622306317800,6.33831787109375,-3.4752748951315877,0.9251555280327797,-0.2870557774156332
1667080622326260700,6.3582607421875,-4.028583023647964,0.6817693809956312,-0.8487751028593629
1667080622346202600,6.37820263671875,-3.8883848638847467,1.0022475355416536,-0.34584516244940455
1667080622366144800,6.398144775390625,-3.297037804353237,1.0155120907843111,-0.3828592073962092
1667080622386086700,6.418086669921875,-2.7239292890846727,0.7399708100736141,-0.40300446206331253
1667080622406028800,6.43802880859375,-2.371668341308832,0.6530301932454109,-0.24410160183012483
1667080622425970700,6.457970703125,-2.83363469542861,0.46705870882272715,-0.5573445444256067
1667080622445912800,6.477912841796875,-2.7212881269261238,0.4215647856265306,-0.40491120900008826
1667080622465855700,6.497855712890625,-1.422249894157052,0.5559072050988674,0.46035833440124985
1667080622485797600,6.517797607421875,-0.5733174818441271,0.4018722431629896,0.49152796416878697
1667080622505739800,6.53773974609375,-1.2003893502295016,-0.07158347322046757,-0.32890783697813747
1667080622525681700,6.557681640625,-0.995174528415501,0.2760416314482689,-0.5392021540135145
1667080622545623800,6.577623779296875,0.02963072976246476,0.5682201587051153,-0.18688304630964994
1667080622565566000,6.59756591796875,1.7915468785382807,0.2799386388868093,-0.11859715332984924
1667080622585508600,6.617508544921875,3.1741642888784405,-0.4839309331685304,-0.27545067981779575
1667080622605450800,6.63745068359375,4.105951802271604,-0.3912970731347799,-0.7860334730684757
1667080622625393700,6.6573935546875,5.1258244263529775,-0.14026128812730312,-0.4713935231566429
1667080622645335600,6.67733544921875,4.435875538294017,-0.20916297491788863,-0.6965563234999775
1667080622665277700,6.697277587890625,4.180519844260812,-0.30135844353437424,-0.8143108885258435
1667080622685219800,6.7172197265625,4.899080202037096,-1.0286427905142306,-0.9666837624683976
1667080622705161500,6.737161376953125,6.029568333044648,-1.2899971404403447,-0.7957181239977479
1667080622725103600,6.757103515625,6.262243700975179,-1.3067770103275775,-0.9034773647099733
1667080622745045800,6.777045654296875,5.844015950816869,-0.8098416341572999,-1.1814806516200302
1667080622764988700,6.79698876953125,5.940180323064327,-0.9636363575965166,-1.5308189899474383
1667080622784930800,6.816930908203125,5.622668032586574,-0.8015922767281531,-1.1093877675727009
1667080622804872700,6.836872802734375,4.753976150053739,-0.5452706602722406,-0.9058329879254102
1667080622824814600,6.856814697265625,4.063496808379888,-0.1417787069529295,-0.7339528649583459
1667080622844756500,6.876756591796875,3.4967902691081165,0.029157120901346204,-0.8134019569873809
1667080622864698600,6.89669873046875,3.3537703299224373,0.08215864324867725,-0.3879270121797919
1667080622884640800,6.916640869140625,2.0788672982394694,-0.4606184466421604,-0.5182277550458908
1667080622904583700,6.936583740234375,0.5033202549017965,-0.27254794411361216,-0.5182350615695118
1667080622924525800,6.95652587890625,-0.21472119356691835,0.30717794346809385,-0.07913228116482496
1667080622944467500,6.976467529296875,-0.32770430640727277,0.9915104529500007,0.7243392334386706
1667080622964409600,6.99640966796875,-0.9446203992202877,0.2881143465578556,-0.6926715910211205
1667080622984351700,7.016351806640625,-1.0029562683328985,-0.7564473131000995,-1.4116589420378207
1667080623004293600,7.036293701171875,-0.08348200080692768,-0.1367798757523298,0.9049579586565494
1667080623024235800,7.05623583984375,-1.691466940282285,1.14477793764472,1.2985805521294473
1667080623044177400,7.076177490234375,-2.724432562431693,1.3486357918918133,0.11104571503698825
1667080623064120600,7.09612060546875,-2.517037766230106,0.7803694559574127,-0.8101210356205701
1667080623084062500,7.1160625,-2.9407760965034364,-0.35991876905262465,-1.8902771557509899
1667080623104004600,7.136004638671875,-4.109321863226592,0.5023036252051591,-0.4430123185312375
1667080623123946800,7.15594677734375,-5.177559289765358,2.024592687216401,0.4995075647458434
1667080623143888600,7.175888671875,-4.960813896894455,1.0521756417930126,-0.6664387600686401
1667080623163830800,7.195830810546875,-3.7332170985266564,0.4037766154795885,-0.8103991949748247
1667080623183772700,7.215772705078125,-3.2220600125193593,1.2899924642652272,-0.24738047737032173
1667080623203715600,7.235715576171875,-3.9551249887272713,1.4305413371622562,-0.2837426342796534
1667080623223657700,7.25565771484375,-4.286385234050452,1.0958534554779529,-0.47660829866286364
1667080623243599600,7.275599609375,-4.492018865798413,1.0765350070238113,-0.42109534148387606
1667080623263541800,7.295541748046875,-4.238151656757295,0.550133882394433,-0.5898363261749967
1667080623283483600,7.315483642578125,-3.0901182244479655,0.4216261604249477,-0.1892117815181613
1667080623303425500,7.335425537109375,-3.4163282006442546,0.5110843130320311,0.1295697982430458
1667080623323367700,7.35536767578125,-4.439123141913115,0.9386749348193406,-0.24308393095387146
1667080623343310600,7.375310546875,-4.688351292976737,0.8498316992402076,-0.632151363606751
1667080623363252700,7.395252685546875,-2.8804981534123417,0.7659738508582115,-0.2528863813102245
1667080623383194600,7.415194580078125,-2.0282395192861555,1.036432129216194,0.13164192834198474
1667080623403136800,7.43513671875,-1.2992612278699873,1.1452397099375724,0.35226825429946185
1667080623423078700,7.45507861328125,-1.3860732498824595,1.1798235320627688,0.04809826047569513
1667080623443020500,7.4750205078125,-1.152515838420391,0.7932172470927238,-0.21613807462751863
1667080623462962700,7.494962646484375,-1.494511120508611,0.24163842658698556,-0.881265532901883
1667080623482905600,7.514905517578125,-0.7401040810644626,0.527172109001875,0.20903905627727506
1667080623502847700,7.53484765625,-0.26694340210482476,0.5275830278903245,0.13229801763053983
1667080623522789600,7.55478955078125,1.6204837710425257,-0.11558978820741175,0.3811033767048269
1667080623542731800,7.574731689453125,3.1473458400577305,-0.20683014805614947,0.6477560522347688
1667080623562673700,7.594673583984375,3.1462790876090523,-0.3176549138188362,0.35297523352503773
1667080623582615000,7.614614990234375,2.1951265101410447,-0.35091771647334097,0.05530479432102293
1667080623602557200,7.63455712890625,2.469586279225349,-0.15623334876298903,-0.07730334870461374
1667080623622500000,7.6545,2.9961048927545546,-0.5516325965195894,-0.8268602812364697
1667080623642442200,7.674442138671875,3.598402093106508,-1.105524954664707,-1.2875851108625531
1667080623662384400,7.69438427734375,5.557090521782636,-1.0889970137119294,-0.4908578463548794
1667080623682326300,7.714326171875,6.944777052080631,-1.2220476398080586,0.23165767878796903
1667080623702268200,7.73426806640625,6.864190188193321,-1.3012889343053102,-0.19137659486923367
1667080623722210000,7.7542099609375,4.668810141682624,-1.6284434978753328,-1.7388035687357186
1667080623742152200,7.774152099609375,4.510358532348275,-1.6510726783126592,-1.9920584910973906
1667080623762095000,7.79409521484375,4.963271226918697,-1.0854705931514501,-1.4108806511417031
1667080623782037200,7.814037353515625,4.289043931865692,-0.01890168434679508,-0.606425386197865
1667080623801979400,7.8339794921875,3.9597126087784766,0.8062000627845525,-0.30666970168501134
1667080623821921300,7.85392138671875,2.7880425725549456,-0.09501052603721619,-0.8189063996225595
1667080623841863200,7.87386328125,2.5670880375564096,-0.7502326763689517,-1.1290376399382949
1667080623861805300,7.893805419921875,3.268724733060598,0.12570260142087936,-0.29109774628281593
1667080623881747200,7.913747314453125,2.376684708166122,1.3483575594723223,0.8113479470670223
1667080623901690400,7.9336904296875,0.7465253462836146,1.13409170845747,-0.32584899739678946
1667080623921632300,7.95363232421875,1.6197387978941202,0.20351181728839873,-0.7683952327862381
1667080623941573000,7.973572998046875,1.6134366290099917,-0.7821873190343379,-0.9274062295690179
1667080623961515300,7.993515380859375,-0.9288752792082726,-0.23459026164114474,-0.6275298412859439
1667080623981457200,8.01345703125,-0.945582229989767,0.9833937819898128,0.22574761449396608
1667080624001400300,8.033400390625,-1.1552020087644457,0.9922451969653368,-0.2921820526544936
1667080624021342200,8.05334228515625,-1.390550395296514,0.5279173744112253,-1.1721145651206373
1667080624041284400,8.073284423828126,-2.7936659653946756,0.12966682887673378,-1.0373919141590595
1667080624061226200,8.093226318359376,-4.915768301987648,0.6712772130757569,-0.6172150757595897
1667080624081168100,8.113168212890624,-5.214471847099065,1.346910867795348,-0.40026071631312365
1667080624101110300,8.1331103515625,-4.032694258359074,0.9913175607264041,-0.838208189202845
1667080624121052200,8.15305224609375,-3.60571826133877,0.48343292051851744,-0.6312807182520628
1667080624140995300,8.172995361328125,-5.0827393178641795,0.6687357118993997,0.10081453614085913
1667080624160937200,8.192937255859375,-5.785546226191521,1.6991496037393807,-0.08995061229914426
1667080624180879000,8.212879150390625,-4.875238723200559,1.4528700733482838,-0.3866676597684622
1667080624200821200,8.2328212890625,-4.7311301119953395,0.7691139024496078,-0.3859530817583203
1667080624220763100,8.25276318359375,-4.136219514763355,0.8554162213742732,-0.12163462132960558
1667080624240705300,8.272705322265624,-3.6909856842577455,1.0615396824657917,0.07032996602803468
1667080624260647400,8.2926474609375,-3.943737625533342,1.2069693131417036,0.06062193422317504
1667080624280590300,8.31259033203125,-3.310900325489044,1.144250114378333,0.16176204905658959
1667080624300532200,8.3325322265625,-2.7166248112902043,0.8714870662093162,-0.042075643751886674
1667080624320474000,8.35247412109375,-2.539941671955585,0.7263163787305355,-0.21061580407470462
1667080624340416300,8.372416259765625,-2.173118530341983,1.2520564091026782,0.030065760178864
1667080624360358100,8.392358154296875,-3.115564800393581,1.106921961981058,-0.006301730492711067
1667080624380302000,8.412302001953124,-2.0474077456146476,0.039352351701259614,-0.2951303627997637
1667080624400244200,8.432244140625,-0.6227277017012238,0.1453285083889961,0.09440700718611478
1667080624420186400,8.452186279296875,-0.30238354879841206,0.4495405877888202,0.3604994915500283
1667080624440128300,8.472128173828125,-0.1905026981115341,0.1972176855802536,-0.2632359258890152
1667080624460070100,8.492070068359375,-1.3228671443849802,-0.14483400287032128,-1.166544363772869
1667080624480012300,8.51201220703125,-0.19425152925103903,0.1525748262554407,-1.0474518281415104
1667080624499954200,8.5319541015625,0.8987572043202817,-0.10768763678073882,-0.5618193517521023
1667080624519897300,8.5518974609375,1.5220558377772568,-0.16149229220449923,-0.14396131168901918
1667080624539839200,8.571839111328124,0.9278023892797529,0.08635551041662692,-0.34221798492819067
1667080624559781400,8.591781494140625,1.8518145924963056,-0.3970481840074062,-1.2309627676695585
1667080624579723000,8.611722900390625,4.477815860661864,-0.9115987118452786,-0.7209376083016396
1667080624599665200,8.6316650390625,5.416590164202451,-0.9687491705656051,-0.6285510010272264
1667080624619607300,8.651607177734375,5.909754789662361,-1.164274665275216,-0.6546507801845669
1667080624639549200,8.671549072265625,5.714957024705409,-1.0198258623301981,-0.6035042015215382
1667080624659492400,8.691492431640626,4.983007024002075,-0.7522282341003418,-0.8636053730487823
1667080624679434000,8.71143408203125,5.475690003424883,-0.656554860240221,-1.1903422957286238
1667080624699376000,8.731376220703124,5.838914243763685,-0.4025906205654144,-1.1564312582984566
1667080624719318300,8.751318359375,5.176188001412153,-0.20878420473337173,-1.266163844910264
1667080624739260200,8.77126025390625,4.619658865022659,-0.03384732454419136,-0.7493167305678129
1667080624759202300,8.791202392578125,4.077770832926035,0.5516150608628988,-0.252991905777622
1667080624779144000,8.81114404296875,3.203537682878971,0.226879833394289,-0.5804629696846008
1667080624799087000,8.831087158203125,2.451414662718773,-0.12938450480401514,-0.979976667022705
1667080624819029000,8.851029052734376,2.485378307119012,-0.012141688692569732,-0.3149026925012469
1667080624838971100,8.87097119140625,1.7264960219569503,0.8614952490270137,0.3168359986513853
1667080624858913300,8.890913330078124,0.5173661697804928,0.45085342395305633,-0.20684943727850913
1667080624878855200,8.910855224609374,1.1305915913820266,-0.12740648272931576,-0.2511719786077738
1667080624898797000,8.930797119140625,0.9898084713377058,-0.6320885275036097,-0.047298333136504514
1667080624918740000,8.950739990234375,-0.48813013842403885,-0.11243161643743514,-0.06607289310544728
1667080624938682000,8.97068212890625,-1.7375544454574583,0.28964696295261383,-0.22568010221570728
1667080624958624000,8.9906240234375,-1.1490987234532832,0.12939151906669139,-0.36226474765688177
1667080624978566100,9.010566162109376,-0.42195173911750317,-0.4609013552367687,-0.46548897528797384
1667080624998508300,9.03050830078125,-2.1265908801838753,-0.0497661936879158,-0.11001458189096301
1667080625018450200,9.0504501953125,-3.809474993298948,1.1858885311901568,-0.10782963906731456
1667080625038392000,9.07039208984375,-3.9537390873268246,1.2220716052055358,-0.06000376579221338
1667080625058335000,9.0903349609375,-2.767961323034763,1.2288865459173917,0.0821259100228548
1667080625078277000,9.110277099609375,-2.448310851484537,1.5794436123847961,0.06544073268175125
1667080625098219300,9.13021923828125,-3.108961164344847,1.1605869166731835,-0.6993658279627561
1667080625118161200,9.1501611328125,-3.9468683247745036,1.1717185515403747,-0.634471330986917
1667080625138103300,9.170103271484376,-4.903929395633936,1.81631058678627,-0.4252197644701227
1667080625158045000,9.190044921875,-5.755343980151414,2.093191007146239,-0.11239358598198741
1667080625177988000,9.209988037109374,-5.703134484964608,1.5080413409501314,-0.28322566120084375
1667080625197930000,9.229929931640624,-5.1499406304776665,0.9629150575846434,-0.28271215872075406
1667080625217872100,9.2498720703125,-4.137978633390367,1.1493418845593928,0.3357397653574124
1667080625237814300,9.269814208984375,-3.873037949410081,0.8338128768533468,0.022108371433615683
1667080625257756200,9.289756103515625,-4.325853613346815,0.6893102978944778,-0.5900353924110532
1667080625277698000,9.309697998046875,-4.110618625038862,0.916989757233858,-0.7404159234926104
1667080625297640200,9.32964013671875,-2.615975987105071,0.986442648166418,-0.6899222923129796
1667080625317583000,9.3495830078125,-1.1037526842951775,0.5310621021777391,0.04728314470052719
1667080625337525200,9.369525146484374,-1.6642469249233602,0.5201847343325615,0.1398062378361821
1667080625357467100,9.389467041015624,-2.3715315631866454,0.3981213661968708,-0.5704881036370992
1667080625377409300,9.4094091796875,-1.1403981151252984,0.1355044489890337,-0.5673612037882209
1667080625397351200,9.42935107421875,0.7875017920553684,0.04413724789023399,-0.3456879991263151
1667080625417293000,9.44929296875,0.7706450575396419,-0.2821627446770668,0.2115890330210328
1667080625437235200,9.469235107421875,0.3033940410152077,-0.6604828473389148,-0.4526286169320345
1667080625457178000,9.48917822265625,0.8484019586980343,-0.7507984935581684,-1.1116884457305074
1667080625477120300,9.509120361328126,2.5516893928945064,-0.5765075100570917,-1.060757299916446
1667080625497062100,9.529062255859374,2.5741724428594113,-0.6603074907720089,-0.47173166906982655
1667080625517004300,9.54900439453125,1.691348720730096,-0.8057435511887073,-0.7073033429637551
1667080625536946200,9.5689462890625,2.2890989253021776,-0.6409586471796035,-0.46300333248469977
1667080625556888000,9.58888818359375,3.4399639277756213,-0.15893325537145137,0.085269724473916
1667080625576831000,9.6088310546875,4.4368484749794,-0.29608839417696,0.1424423584934324
1667080625596773600,9.628773681640626,5.487493838465213,-0.7685054151624441,0.024810287336073815
1667080625616715800,9.6487158203125,5.797749289682507,-0.9699334119141101,0.05225969100408256
1667080625636657700,9.66865771484375,5.755229998382926,-0.29921324819922446,0.4880036625001579
1667080625656599800,9.688599853515624,5.064763516190648,0.5699731398522854,0.6074478976460174
1667080625676541700,9.708541748046875,4.274450758367776,0.3566109596788883,-0.25472232803311196
1667080625696483600,9.728483642578125,5.03941397087872,-0.437853072604537,-0.48821434610877185
1667080625716426800,9.7484267578125,5.097777312520146,-0.8246352986633777,-0.5193158425435423
1667080625736368600,9.76836865234375,3.9360108306735753,-0.5819675290286541,-0.48177200156897304
1667080625756310800,9.788310791015626,2.89165492272079,-0.20906477524042127,-0.04067106961701065
1667080625776252700,9.808252685546876,2.4157845464110372,-0.05801145946383476,0.5171022581472993
1667080625796194800,9.82819482421875,2.8537919327944516,0.0842307733476162,-0.4028109853178262
1667080625816137000,9.848136962890624,2.905830163067579,-0.6870593040972948,-0.9583806290253997
1667080625836079900,9.868079833984375,2.3055765973724425,-0.14432020812928675,-0.8000845025137067
1667080625856021800,9.888021728515625,1.184447830862552,0.17646423588693141,-0.19399024796634912
1667080625875963600,9.907963623046875,0.7719197536505759,0.8623071499317884,-0.546454317098856
1667080625895905800,9.92790576171875,-0.7293827805638313,1.4183265832334755,-0.8116811245441437
1667080625915847700,9.94784765625,-1.4614203134201467,1.2017635611921549,-0.9375482688769697
1667080625935789800,9.967789794921876,-1.6006382299743591,0.17944997369945048,-0.9618027124285697
1667080625955731700,9.987731689453126,-3.467029044833779,1.020611459749937,-0.24238601181758565
1667080625975674600,10.007674560546874,-5.9512394772171975,2.0069804581582544,0.12176319787902756
1667080625995616800,10.02761669921875,-4.399752670033275,2.430183074119687,-0.14366645692829041
1667080626015558700,10.04755859375,-1.4448407884106038,0.819625361546874,-0.6798129862308502
1667080626035500800,10.067500732421875,-0.9409560314938425,-0.061608022651076316,-0.8320096268236636
1667080626055442700,10.087442626953125,-3.9335716208279132,0.6676344726592301,-0.8935936840772628
1667080626075384600,10.107384521484375,-5.962045533391833,1.474919408071041,-0.42602264181822536
1667080626095326700,10.12732666015625,-5.675519917330146,1.2053344054162503,-0.6034317573398351
1667080626115269600,10.14726953125,-4.857636138753593,0.19885668495893477,-1.2124590696644038
1667080626135211800,10.167211669921874,-5.148481663841009,-0.27147651548981666,-1.275115797650814
1667080626155153700,10.187153564453125,-5.698175985774397,0.6196902337014675,-0.6179778768256307
1667080626175095800,10.207095703125,-5.110882293286919,1.655351378545165,-0.03720861767083406
1667080626195038000,10.227037841796875,-3.0133205237105485,1.3732652062356472,0.12512045415136963
1667080626214979600,10.2469794921875,-2.622987034910917,0.13938742790222167,-0.20383067397922278
1667080626234922800,10.2669228515625,-3.088530370734632,0.26127251686155795,-0.29497162857409565
1667080626254864600,10.28686474609375,-2.4287232307001947,1.2176982124269007,-0.28774050827678294
1667080626274806800,10.306806884765624,-2.1082275404974817,0.9639297875851393,-0.08812483991039917
1667080626294748700,10.326748779296874,-2.237980878613889,0.710826548653841,0.095991956556309
1667080626314690800,10.34669091796875,-1.7133140304312109,0.23977380175888538,-0.16837677275491877
1667080626334632700,10.3666328125,-1.5361574283659458,-0.19844050537347793,-0.361570627912879
1667080626354574600,10.38657470703125,-1.7125940455935895,0.1679781470924616,0.11036357799172401
1667080626374517800,10.406517822265625,-0.9028009267531335,0.7485673735052347,0.33256343687623735
1667080626394459600,10.426459716796876,-0.3469007359169423,0.40705929041206834,0.26888299186527725
1667080626414401800,10.44640185546875,-0.24121347917318342,-0.2610930686414242,-0.9034452160060406
1667080626434344000,10.466343994140624,1.5755777307368815,-0.23552140501141547,-0.07086305912458338
1667080626454285600,10.48628564453125,2.4095080964900553,0.21014555621445177,0.7764516979917884
1667080626474227700,10.506227783203125,1.8085544197015464,0.8055167566955089,0.9617553661555052
1667080626494170600,10.526170654296875,2.086465498283505,0.43247371765375137,0.055718672351539135
1667080626514112800,10.54611279296875,3.451348076099157,-0.7005366253077984,-1.2606605713188648
1667080626534054700,10.5660546875,4.44949402154088,-1.2556243307173252,-1.1947533901691436
1667080626553996800,10.585996826171876,4.561349299395084,-0.869378111231327,-0.22192338003069162
1667080626573939000,10.60593896484375,3.8707308415114876,-0.21210312002301215,0.3086681820258498
1667080626593880000,10.625880126953126,3.3744413620293137,0.3545511045396328,0.29295974076241255
1667080626613822000,10.645822021484374,3.5941070262610912,-0.06812076554596423,0.09232700430797412
1667080626633764900,10.665764892578125,4.58356931450963,-0.6217372293591499,-0.3196013717114925
1667080626653707000,10.68570703125,4.764564179563522,-0.7488964593291282,-0.8530290339767932
1667080626673649200,10.705649169921875,4.859435589390992,-0.6079518651127815,-0.9414569667533039
1667080626693590800,10.7255908203125,4.856735098260641,-0.1567132412344217,-0.20889866142589597
1667080626713533000,10.745532958984375,3.994380602055788,0.2000532012671232,0.04837156099174172
1667080626733475000,10.76547509765625,3.7475241485595703,0.09419336443543433,-0.3380783643728122
1667080626753418000,10.78541796875,3.311657281336188,0.08570844468474388,-0.09870733472853899
1667080626773360000,10.805360107421874,3.103794867622852,0.12231295898258686,0.0039762832198292014
1667080626793302000,10.825302001953125,2.730941798195243,0.11110124461650847,-0.39851277666725216
1667080626813244000,10.845243896484375,2.4469687892258167,0.4534896176755428,-0.4024021853212267
1667080626833185800,10.865185791015625,2.181568378779292,0.3725403502166271,-0.3551349688421935
1667080626853128000,10.8851279296875,2.1272750630557535,0.02115267814397812,-0.8604831493750215
1667080626873070000,10.905070068359375,1.788626461046934,-0.21214754368662833,-1.453986510157585
1667080626893013000,10.925012939453126,1.2572867109715937,0.2654565245479345,-0.8190645127937197
1667080626912955100,10.944955078125,-0.09435454634651541,1.905860509330034,0.4214780206585303
1667080626932897000,10.96489697265625,-1.702237632882595,1.6267501379609106,-0.7986614839732646
1667080626952839000,10.9848388671875,-1.4733423680126667,1.2817530437082052,-1.399851015344262
1667080626972781000,11.004781005859375,-2.613700151127577,1.2975830655246972,-0.3627671076884493
1667080626992723000,11.024722900390625,-2.358270515075326,1.1925041499376297,0.5684992679074407
1667080627012666000,11.044666015625,-4.115261482408642,1.5024848758667706,-0.848424755051732
1667080627032608000,11.06460791015625,-4.038431340706349,1.9542840562373398,-0.9529626956298947
1667080627052550100,11.084550048828126,-4.519993498916924,1.4661451499849556,0.026906200169399378
1667080627072491800,11.10449169921875,-4.7771626721128815,0.15700491765737531,-0.7132253534238785
1667080627092434000,11.124433837890624,-4.8139442965432995,0.9618968204528093,-0.8138168944638222
1667080627112376000,11.1443759765625,-5.245999788784981,0.8684814546525478,-0.3557522970229387
1667080627132319000,11.164319091796875,-6.432927599895,0.6954173825979232,-0.9610738136321305
1667080627152261000,11.18426123046875,-6.544210046297311,0.9492419215410948,-0.9667135730847716
1667080627172203000,11.204203125,-5.406026684612035,1.0143944849312305,-0.3952481488481164
1667080627192145000,11.224144775390625,-4.1376007399886845,0.9215577958017587,0.026951719811558722
1667080627212087000,11.244087158203126,-3.8085581707149743,0.7788409312158823,0.2508826402723789
1667080627232029000,11.26402880859375,-3.973818583281338,0.922993381562829,0.11659140299800783
1667080627251971000,11.28397119140625,-4.2837224445819855,1.5518500875383614,0.06069178458899259
1667080627271914000,11.3039140625,-3.7052605855867267,1.2402993358135224,-0.4288414255660027
1667080627291856100,11.323856201171875,-2.4130622818402943,0.5565589470058679,0.32610421426687386
1667080627311798000,11.343798095703125,-0.8127839712195097,0.7683323966830968,0.344899515629746
1667080627331740000,11.363739990234375,-0.6934618646159768,0.7921534172534942,-0.43087296792622654
1667080627351682000,11.38368212890625,-1.217632453714311,0.8654343420416116,-0.6864522781148552
1667080627371624000,11.4036240234375,-0.5444073214411735,0.6831470990896225,-0.40850276721864937
1667080627391567000,11.423567138671874,0.5642917332150041,-0.17171674909889698,-0.4239072570994496
1667080627411509000,11.443509033203124,1.252000879523158,-0.20884441048800945,-0.303699453702569
1667080627431451100,11.463451171875,1.9561668012440203,0.510603251516819,0.12888181597888468
1667080627451392800,11.483392822265625,1.3952046508431435,0.3288286342620849,-0.5022261760547757
1667080627471335000,11.5033349609375,1.5975427481770514,0.14834990203678608,-1.1914210308760405
1667080627491277000,11.523277099609375,3.7076609247267243,-0.4071013759881258,-1.1877853047221898
1667080627511220000,11.543219970703126,4.920867670953274,-1.4784545964598654,-1.4501350954264403
1667080627531162000,11.563162109375,5.448713149172067,-1.8652759854853151,-1.255251405751705
1667080627551104000,11.58310400390625,5.1620495859444135,-1.5149807848244905,-0.7801312632873654
1667080627571046000,11.6030458984375,4.663628939652443,-0.8334493042379617,-0.5597773245304822
1667080627590988000,11.622988037109375,4.841549804088473,-0.3088052524089813,-0.27695816177129745
1667080627610930200,11.64293017578125,5.5635693624079225,-0.2947802341878414,-0.3838894272267818
1667080627630872300,11.662872314453125,5.597513717585802,-0.749409669548273,-0.8931111612573266
1667080627650815200,11.682815185546875,5.67856936802864,-0.7721148378312588,-1.104630051651597
1667080627670757000,11.702757080078126,5.151961907172203,-0.45200259398818016,-1.3054641741633415
1667080627690699000,11.722698974609376,3.872270472168922,0.11422551411688327,-0.9095923404589294
1667080627710641200,11.74264111328125,3.462969540309906,0.4726327095627784,-0.28806754827406256
1667080627730583300,11.762583251953124,3.576688273948431,-0.468355178374052,-0.40933658769428727
1667080627750525200,11.782525146484375,3.074575787401199,-1.4276847786873579,-0.793190651346743
1667080627770468400,11.80246826171875,2.0687983241677284,-1.345076053583622,-0.4648205745071172
1667080627790410000,11.822409912109375,1.1999078503228724,-0.23522096076011656,0.15844463160429148
1667080627810352000,11.84235205078125,0.9997750079482793,0.5075882876098156,0.2116828487843275
1667080627830294000,11.8622939453125,1.2017865036763251,-0.48319560463130473,-0.6236755039453507
1667080627850236200,11.882236083984376,1.0250596713304518,-0.5044277777522802,-1.0701719017326832
1667080627870178300,11.90217822265625,-0.11226619674265384,1.2688275111615657,-0.2611757784888148
1667080627890120000,11.922119873046874,-0.7369222361579537,3.3129636877596376,0.192002617813088
1667080627910063000,11.94206298828125,-1.1940670153401791,3.0404508149594065,-0.4350110906442627
1667080627930004200,11.962004150390625,-1.298081370435655,2.158493208140135,-0.22650946571193634
1667080627949946000,11.981946044921875,-2.4684487996280193,1.598815836852789,-0.372630074326694
1667080627969888300,12.00188818359375,-4.623773314604163,1.9867560007750986,-0.757183226159215
1667080627989830100,12.021830078125,-4.772430967415869,2.101732625520229,-0.4178193154878914
1667080628009772000,12.04177197265625,-5.46678072078228,1.271775255051255,-0.8148240256797522
1667080628029714200,12.061714111328126,-5.945473753297328,0.780475254419446,-1.3540472955465317
1667080628049657000,12.081656982421874,-6.083728377777338,0.38760464835762976,-1.3341679983392356
1667080628069599200,12.10159912109375,-7.03648152230978,0.6810042418420315,-1.0263953038483857
1667080628089541000,12.121541015625,-6.902411490038037,1.3185744156271217,-0.6592141425773501
1667080628109483300,12.141483154296875,-5.740541547816991,0.6015683015555143,-0.7612855469115078
1667080628129425200,12.161425048828125,-4.489456614094973,0.5115191973179578,-0.44661476346999407
1667080628149367000,12.181366943359375,-3.8889632482945915,0.7719318824797868,0.09987111781090498
1667080628169310200,12.201310302734376,-3.537297051541507,0.5055196646422148,-0.154111972694844
1667080628189252000,12.221252197265626,-2.8944080208212135,0.2951215949714184,0.0035559389159083364
1667080628209194200,12.2411943359375,-2.8397835734471677,0.7819079175710678,0.01368168467618525
1667080628229136100,12.26113623046875,-2.629091489265859,0.8182540731936693,0.2689593450371176
1667080628249078000,12.281078125,-2.947792989528179,0.49559039130210875,-0.2817164622142911
1667080628269020200,12.301020263671875,-2.0967944384656847,0.4683686223775148,-0.5557516492109745
1667080628288963000,12.320963134765625,-1.2866776406288145,0.6910130101591349,0.07740326541513204
1667080628308905200,12.3409052734375,-0.5858280038490891,0.7017623677104711,0.20952296733669937
1667080628328847000,12.36084716796875,-0.34327085498198867,0.5085369666367769,-0.26848109653349966
1667080628348789200,12.380789306640626,0.04601575511321425,0.3104699707508087,-0.7501090499892831
1667080628368731100,12.400731201171874,1.1851479419559239,0.3334568785846233,-0.0880295811086893
1667080628388674300,12.42067431640625,2.4025275899529457,0.22183307139873504,0.3708250707313418
1667080628408616200,12.4406162109375,1.7225965303003787,-0.20859481964111326,-0.12638356942236423
1667080628428558000,12.46055810546875,1.3510826005220413,-0.42798458954095836,-0.8596396842882037
1667080628448501000,12.4805009765625,2.4124480954647063,-0.4004080158293247,-1.0359133660390973
1667080628468443100,12.500443115234376,2.8504531437605616,-0.006646598407626152,-1.0528867126718162
1667080628488385300,12.52038525390625,3.139292297461629,0.31682255464792247,-0.6792234959051012
1667080628508327200,12.5403271484375,4.239194151547551,-0.16369710877239704,-0.34984161167442795
1667080628528269000,12.56026904296875,5.406815789163113,-0.8392074293732643,-0.4068757505387068
1667080628548211200,12.580211181640625,5.189574721729755,-1.1078133578628302,-0.37821956489682196
1667080628568154000,12.600154052734375,5.019944715777039,-0.9850386265873908,-0.42368280069381
1667080628588096300,12.62009619140625,6.049849489051104,-1.1210352430075405,-0.8969295505017042
1667080628608038100,12.6400380859375,6.072650518923997,-1.4945593435645104,-1.6054311633393168
1667080628627980000,12.65997998046875,5.5416193964064115,-1.2596984482884406,-1.1996595746502279
1667080628647922000,12.679921875,4.657566278612613,-0.7192939327478408,-0.962505307739973
1667080628667864000,12.699864013671874,3.7734897799432274,-0.07497837635576725,-0.3229699713617563
1667080628687807000,12.719806884765624,3.3074192053750155,-0.10886778647601604,-0.1531619784936309
1667080628707749000,12.7397490234375,3.1062206334650515,-0.383844419041276,-0.13640461269915102
1667080628727691300,12.759691162109375,2.6522353412270543,-0.3568564588725567,-0.5712380452215671
1667080628747633200,12.779633056640625,1.9825819299608467,0.21074936732649802,-0.43019642037153244
1667080628767575000,12.799574951171875,1.2713165514983236,0.3858738790422678,-0.09461303288592025
1667080628787517200,12.81951708984375,0.35151159071326255,-0.19527590386271476,-0.49497868914455173
1667080628807460000,12.839460205078124,-0.1623573846012354,0.14259879116415977,-0.45410950313955545
1667080628827402200,12.85940234375,-0.04036825074553489,0.9813841957330703,-0.48727206028997894
1667080628847344000,12.87934423828125,-1.1453194971755147,1.6758248422533273,0.46143973642978814
1667080628867286300,12.899286376953125,-1.616304585661739,1.497042392551899,-0.3222983191778883
1667080628887228000,12.919227783203125,-2.286016302986443,0.9779197344928979,-0.8400067630574106
1667080628907170000,12.939170166015625,-3.0319770011246203,1.5530939501196146,0.042426060058176514
1667080628927113000,12.959113037109375,-3.3981057307332754,2.0277058508008716,0.11296849979311227
1667080628947055000,12.97905517578125,-3.3039854315340516,1.4944792640656233,-0.9034171589553356
1667080628966997200,12.998997314453124,-3.7546293043896553,1.3225778060495852,-0.7428685042764991
1667080628986939100,13.018939208984374,-4.399491388748586,1.558372767305374,-0.2762448258701712
1667080629006881000,13.038881103515624,-5.609665927672386,1.33801093750298,-0.7091851381223648
1667080629026823200,13.0588232421875,-6.409985115724802,1.1083645620048046,-1.2455968576997518
1667080629046766000,13.07876611328125,-6.367616631072759,1.2282114231348038,-1.2364248324677347
1667080629066708000,13.0987080078125,-5.145789940539002,0.8928472496241331,-1.2400925611950457
1667080629086650000,13.118650146484375,-4.337643127600848,0.5012760357230901,-0.9685921533729881
1667080629106592300,13.13859228515625,-4.499151786418259,0.7298223410248756,-0.5046565450068563
1667080629126534100,13.1585341796875,-4.262109747710824,0.6417208637237548,-0.2766068641155958
1667080629146476000,13.17847607421875,-3.298078253316879,0.5863455979824066,-0.8278449083596467
1667080629166419000,13.1984189453125,-3.263986014100909,0.35943303136229515,-1.0536164882510899
1667080629186361000,13.218361083984375,-2.7057781308442355,0.6999333987176418,-0.22109014407694338
1667080629206303200,13.23830322265625,-1.8893793301284312,1.011724388939142,0.5008794376209378
1667080629226245000,13.2582451171875,-2.3544477419167755,0.8468757720440626,-0.434175260874629
1667080629246187300,13.278187255859375,-1.9743289192698894,0.2181312942713499,-0.44636984879821534
1667080629266129000,13.29812890625,-0.35540436036810275,0.025602058768272398,-0.4367185156166553
1667080629286072000,13.318072021484374,1.249122985999286,-0.25648878971636296,-0.20294744313759727
1667080629306014000,13.338013916015624,1.2183271579802035,-0.027264439022541043,0.16365823806673288
1667080629325956000,13.3579560546875,0.3058618193682283,0.13194237259328365,-0.12506750012142584
1667080629345898200,13.377898193359375,1.108633295943588,-0.01799801350533962,-0.26229513790756465
1667080629365840100,13.397840087890625,2.952666733044386,-0.36038112586736676,-0.22665683829337357
1667080629385782000,13.417781982421875,3.7698178134322164,-0.26434008773863316,-0.2638707166612148
1667080629405725000,13.437724853515626,4.5524113751798865,0.03664075465500354,0.147076228839159
1667080629425667000,13.4576669921875,5.109854119282961,0.03920271409749985,0.2791954193040728
1667080629445609200,13.477609130859374,5.65186314741075,-0.12534312045872212,0.43901890151351686
1667080629465551000,13.497551025390624,6.015262744316458,-0.5249877507001162,-0.07777326777130365
1667080629485493200,13.5174931640625,6.595916268137097,-0.7833662996858358,-0.37215661159604785
1667080629505435000,13.537434814453125,6.291828107377887,-0.2331102522164583,-0.28743306802911683
1667080629525378000,13.5573779296875,5.451335314369201,-0.18362696712315082,-0.5657128520593047
1667080629545320000,13.57731982421875,4.367605427405238,-0.17940204290449618,-0.6177870304286479
1667080629565262000,13.597261962890625,4.066406558346748,0.15069149672687052,-0.35047815601229665
1667080629585204200,13.617204345703126,3.8815538488209245,0.24483459227979182,-0.0009039448360912501
1667080629605146600,13.637146728515624,3.44009661424458,0.07420973007082939,-0.3600768822237849
1667080629625088800,13.6570888671875,3.6120419114023443,-0.08822890307307243,-0.6295441037178039
1667080629645031700,13.67703173828125,2.5564777962148186,-0.3196645000755787,-0.4444280670806765
1667080629664973600,13.6969736328125,0.7087807951051741,0.21585341246724127,0.2026464508970268
1667080629684915500,13.71691552734375,0.8459539810240269,0.500017560094595,0.27725451436936854
1667080629704857600,13.736857666015625,1.64911277641654,0.4993307468742132,0.1509045549556613
1667080629724799700,13.7567998046875,0.10706336740255355,-0.046159693628549575,-0.27685031748265027
1667080629744741600,13.77674169921875,-0.4595933413781225,-0.3330143955141306,-0.8092702640101314
1667080629764684800,13.796684814453124,0.18689035283327102,0.6938941185534,0.1417383749425411
1667080629784626700,13.816626708984375,-0.9686549164108932,1.8735183286517858,1.4332687162995337
1667080629804568600,13.836568603515625,-2.8946880068063736,0.48458968933820723,-0.8068336845129728
1667080629824510500,13.856510498046875,-1.9719687660098075,-0.9143944800436496,-0.8898200107574462
1667080629844452600,13.87645263671875,-0.9727011230617761,0.6846177561640739,-0.12467705776542425
1667080629864394800,13.896394775390625,-2.803064492858946,1.832614655855298,-0.1708805174704641
1667080629884337700,13.916337646484376,-3.205748929187655,1.3647335247337817,-1.658691628883779
1667080629904279800,13.93627978515625,-3.214753196637332,0.4035100734978914,-2.3078823900967835
1667080629924221400,13.956221435546874,-4.736194701908529,1.2713532302469015,-1.1172714334946126
1667080629944163600,13.97616357421875,-7.170303132778406,2.223342989191413,-0.7443816853184253
1667080629964105700,13.996105712890625,-7.040783603417873,1.5501181491792202,-1.5112125183321534
1667080629984047600,14.016047607421875,-5.17238744008541,1.3503081090182065,-1.1300528813954442
1667080630003990500,14.035990478515625,-5.278389315736294,1.853953796482086,-0.813144475094974
1667080630023932700,14.0559326171875,-5.1534004155427215,1.4239508528560398,-0.915151143629849
1667080630043874600,14.07587451171875,-3.5317546149834986,0.6270569630771875,-0.8208235583554953
1667080630063816400,14.09581640625,-3.8891689999997614,0.7106395016491412,-0.6367948054984212
1667080630083758600,14.115758544921874,-3.858350667887926,1.2745102329730986,-0.5928790914043783
1667080630103700700,14.13570068359375,-3.484845856553316,0.7039806282818317,-0.759648739489913
1667080630123643600,14.1556435546875,-3.154840871988237,0.6236836872518062,-0.8066234758283942
1667080630143585800,14.175585693359375,-1.9865010031007229,0.6357949808061123,-0.4614618386637419
1667080630163527400,14.19552734375,-1.593588165332377,0.5342582678705453,-0.3068099138732999
1667080630183469600,14.215469482421875,-1.7431668785117564,0.46366439020931716,-0.10428655963297932
1667080630203411500,14.235411376953126,-1.4222688911184667,0.46670799568891524,-0.08947678424231707
1667080630223353600,14.255353515625,0.01672390191629529,0.019041969600319862,-0.03980298154558986
1667080630243296500,14.275296630859375,0.8123593160666525,-0.31242753455936906,-0.3154050525328144
1667080630263238700,14.29523876953125,0.8477868955396115,-0.4529086029171943,-0.019989223855175077
1667080630283180800,14.315180908203125,0.7287341073967516,0.30175708746314045,-0.1403334400480613
1667080630303122400,14.335122314453125,1.0610136127650738,-0.08017302238941192,-0.705947544440627
1667080630323064600,14.355064697265625,1.7995301323771475,-0.7687246108710766,-0.9425044299796224
1667080630343006700,14.3750068359375,3.1938714443892238,-0.6158768128931522,-0.4412272252127528
1667080630362949600,14.39494970703125,2.7911235874354836,-0.37884617236256596,0.22966478793770073
1667080630382891800,14.414891845703124,1.723612429344654,-0.454022701638937,-0.5401823972225189
1667080630402833700,14.434833740234374,2.9755846672952173,-0.3926759602725506,-0.7180065232858062
1667080630422775600,14.454775634765625,4.764299391147494,-0.5233306311428546,0.27097411892563106
1667080630442717400,14.474717529296875,4.687735206905007,-0.31341829916238784,0.5460173869863152
1667080630462659600,14.49465966796875,3.637543432405591,-0.43579789364039895,-0.154282835749723
1667080630482602500,14.5146025390625,4.0211230630308386,-0.47502515765726566,-0.3793330790966749
1667080630502544600,14.534544677734376,5.056801743531227,-0.4216477877348661,-0.3360173767223954
1667080630522486800,14.55448681640625,4.837009822571277,-0.4620598776221275,-0.7047270627349614
1667080630542428400,14.574428466796874,4.933860423517227,-0.2536199562817812,-0.5888318618401884
1667080630562370600,14.59437060546875,4.473756356137991,-0.49315878024101256,-0.4345709821939468
1667080630582312700,14.614312744140625,3.7386809168905017,-0.5438391661643982,-0.5517749275997281
1667080630602254800,14.6342548828125,3.16032748670578,-0.20282675763368604,-0.4374973910346627
1667080630622197000,14.654197021484375,2.793410237067938,-0.21957506333887575,-0.16284253776967525
1667080630642139000,14.674138916015625,3.5061505103886126,-0.42514381315708155,-0.20234421654744073
1667080630662080800,14.694080810546875,3.4570483335673807,-0.31321137841343877,0.10296117451442405
1667080630682023000,14.71402294921875,2.407483312664181,-0.2951215949714184,0.12044690938238053
1667080630701964800,14.73396484375,1.9632054677091537,-0.20644202552139757,-0.45313806429151443
1667080630721908000,14.753907958984374,2.5443746859669685,0.20841654046475885,-0.2745320671355352
1667080630741849900,14.773849853515625,3.1964661370575427,0.6691413700908422,0.2579191513130441
1667080630761792000,14.7937919921875,1.962555040976405,0.43851299781799313,-0.1638540528997779
1667080630781733600,14.813733642578125,-1.3457517608880996,0.37826515760421753,-0.16946049460470675
1667080630801675800,14.83367578125,-3.272671424859762,1.301181382277608,-0.8744932622879743
1667080630821618000,14.853617919921875,-1.7442624186635016,1.6181266865223645,-0.3235571235999465
1667080630841560800,14.873560791015626,-0.8768804496854543,1.8281822263658045,-1.1744953227773307
1667080630861503000,14.8935029296875,-1.6265759504377841,0.40365152779519553,-0.7070037754952907
1667080630881444900,14.91344482421875,-3.3406133267074822,0.750728350931406,-1.2329898895829916
1667080630901386800,14.93338671875,-4.797924012851714,0.920538974148035,-1.0157622661530972
1667080630921329000,14.953328857421875,-4.082948820085823,1.7808786233991383,0.143587290744856
1667080630941271800,14.973271728515625,-2.5631194261863826,2.132099122211337,-0.1113984009321779
1667080630961214000,14.9932138671875,-2.9201220155313607,0.7030360409080981,-1.1643262493319808
1667080630981155800,15.01315576171875,-3.6892154597148297,-0.34127310529351235,-1.6427676451735198
1667080631001098000,15.033097900390626,-4.63908048159033,0.5624965203613043,-1.5557352584086357
1667080631021039900,15.053039794921874,-5.246988215300441,1.243929216748476,-1.267460022200644
1667080631040981800,15.072981689453124,-5.1125744841575615,0.6669196023881435,-1.517627353810519
1667080631060924700,15.092924560546875,-4.8094484464287754,-0.14756488913893698,-1.7850909803971646
1667080631080866800,15.11286669921875,-3.614422376798093,0.06593991437554358,-1.2711549311958252
1667080631100809000,15.13280908203125,-3.103625356274843,0.7572294033885002,-0.5188128614574671
1667080631120750800,15.152750732421875,-3.515301492832601,0.8727794441074133,-0.5919949289809913
1667080631140693000,15.17269287109375,-4.05959570928812,0.5585118346393108,-0.688519147516787
1667080631160635000,15.192634765625,-3.0310461500152943,0.9640765025794505,-0.5170475322853774
1667080631180577800,15.212577880859374,-2.277681897622347,0.9306617242336273,-0.48204000485539433
1667080631200519700,15.232519775390625,-1.98597040335536,0.8469125969231128,0.10006459455639123
1667080631220461800,15.2524619140625,-2.6364436055943368,0.8600608323097229,0.10199443010780959
1667080631240404000,15.272404052734375,-2.330980941611528,0.9277022899061441,-0.12552315320074559
1667080631260345900,15.292345947265625,-1.6081155801177023,0.8363011865377425,-0.6162634741231798
1667080631280287700,15.312287841796875,-0.5643102917850017,1.016698670220375,-0.4264285922706127
1667080631300230700,15.332230712890626,-1.2349997681006788,0.5294610967218876,-0.09966332027912139
1667080631320172800,15.3521728515625,-1.9012381102263927,-0.1543605406284332,0.4703013440057635
1667080631340115000,15.372114990234374,-0.25159108080267906,0.018984686455130576,0.6208531400009989
1667080631360056800,15.392056884765625,2.6354279988110063,0.5255249263167381,1.1202096058383584
1667080631379999000,15.4119990234375,3.08591317397356,0.417075072991848,1.0397381850242615
1667080631399940900,15.43194091796875,2.6383821724414824,0.01822889965176582,0.7774588292077184
1667080631419884000,15.451884033203125,1.6054408079504965,-0.22720950374007223,-0.12007453240603208
1667080631439825700,15.47182568359375,3.2920459874153134,-0.42657881439626216,0.0667608753696084
1667080631459767800,15.491767822265626,3.9826726286053655,-0.4486269800752401,-0.3995984895447269
1667080631479710000,15.5117099609375,4.466431127816438,-0.5131523514777422,-0.713693044000864
1667080631499651800,15.53165185546875,4.495426920676231,-0.5032973124176263,-0.25388448896948246
1667080631519595000,15.551594970703125,4.576060546314716,-0.48272915616333484,-0.49410742273535574
1667080631539537000,15.571536865234375,5.243938764601945,-1.1552058081567287,-1.309651688981056
1667080631559478800,15.591478759765625,5.60469690708816,-1.7233347814470528,-1.5563655191361903
1667080631579421000,15.6114208984375,5.07046669626832,-1.4108990635812282,-0.9487760575950145
1667080631599363600,15.631363525390626,4.464541953068971,-0.5277700748950243,-0.6296145386055112
1667080631619305700,15.6513056640625,3.6188697115957735,-0.4893260702103376,-0.6144882811442017
1667080631639248600,15.67124853515625,3.5589410203337666,-0.752097301197052,-0.7797685674548148
1667080631659190500,15.6911904296875,4.254634297263622,-0.7960036629408598,-0.738383833143115
1667080631679132700,15.711132568359375,4.069643640571832,-0.0479272878229618,-0.2826321157544851
1667080631699074600,15.731074462890625,2.396079144465923,0.4624123443216085,0.03865998552292585
1667080631719016400,15.751016357421875,1.4320575869441032,1.0090800119102001,-0.15171967073082923
1667080631738958600,15.77095849609375,2.274149485712498,0.7112590948522091,0.16962737560421226
1667080631758901500,15.790901611328126,3.020632600289583,0.10024433503746986,-0.09055939184725284
1667080631778843600,15.81084375,2.059154882031679,-0.5484849461436271,-0.8024696440845728
1667080631798785800,15.830785888671874,0.863175164937973,0.23539982445836066,-0.9142755298390984
1667080631818727400,15.8507275390625,0.6052393912836909,0.9826309809237718,-0.171377470674552
1667080631838669600,15.870669677734375,0.5843877419129013,1.0317705671459436,0.27303401059750465
1667080631858611500,15.890611572265625,-0.06601210282891988,0.9013765930384396,-1.2781880447030067
1667080631878554600,15.9105546875,0.5880535709440707,-0.3586211304575205,-1.9956167681008576
1667080631898496500,15.93049658203125,-1.495498085719347,0.6652233198642731,0.1307242289751768
1667080631918438700,15.950438720703126,-4.43205539548397,2.577734519255161,1.2730427907690405
1667080631938379500,15.970379638671876,-3.4506185927808284,2.313883676338196,0.12558715834766626
1667080631958321700,15.99032177734375,-1.72807700753808,-0.17667524828910827,-1.344866794747114
1667080631978264600,16.0102646484375,-2.1404478483617306,0.26713702498078346,-1.2825658213958144
1667080631998206700,16.030206787109375,-3.342288858704269,1.4668483298182486,-0.4188095686342567
1667080632018148600,16.050148681640625,-4.457217017008364,2.0000439368933436,0.22984840087629854
1667080632038090800,16.0700908203125,-4.8003401340827345,1.475227451106906,-0.809218168496713
1667080632058032600,16.09003271484375,-4.527962285839021,0.21090835728049276,-1.626280328492075
1667080632077974500,16.109974609375,-4.418140267378091,0.1428980663716793,-1.6187629385992883
1667080632097917400,16.12991748046875,-5.325699932965636,1.0457879865825175,-1.1106176016286016
1667080632117859600,16.149859619140624,-5.923814294674992,1.1249053624391556,-1.117508968577534
1667080632137801700,16.1698017578125,-5.368527267301082,0.4893523736953735,-1.0186216741722076
1667080632157743600,16.18974365234375,-4.0444904946148394,0.2519721890747547,-0.9360875486746429
1667080632177685500,16.209685546875,-3.6676971631288526,0.405189404886961,-0.30221827523410316
1667080632197627600,16.229627685546873,-4.7587762438118455,0.8515010937571525,0.13210574646145104
1667080632217570600,16.249570556640624,-5.223848747253418,1.1540490393370388,-0.19105119883976876
1667080632237512700,16.2695126953125,-3.485878998993337,1.137996899202466,-0.5535360555207357
1667080632257454600,16.28945458984375,-1.766244533368945,1.0803706396639345,-0.22875410283356903
1667080632277396700,16.309396728515626,-2.6150270158171653,1.1938286765396595,-0.41642683821618554
1667080632297338600,16.329338623046876,-3.0034292442932724,0.7720183917194604,-0.5747247182935475
1667080632317281800,16.34928173828125,-1.480574072831869,0.5868436106324195,-0.3897314312532544
1667080632337223400,16.369223388671877,0.47255263006389137,0.7756693154424429,0.1786985708102584
1667080632357165600,16.38916552734375,0.2771932857014239,0.18478665855228898,0.005437223759508924
1667080632377107700,16.409107666015625,-1.2456453730165957,-0.15714695647656918,-0.6770788850918412
1667080632397049600,16.429049560546876,-0.13989815390333532,0.033767245045304296,-0.5246998736694455
1667080632416991700,16.44899169921875,1.6887703946746884,-0.24261457814276216,-0.24823565116124227
1667080632436934700,16.4689345703125,2.1745522164069113,0.029328970336914062,0.055569655802287156
1667080632456876500,16.48887646484375,3.1733740152835845,0.08479542149305343,-0.33116935216933485
1667080632476818700,16.508818603515625,3.0578368340462445,-0.32984804043769833,-1.0617708608731626
1667080632496760600,16.528760498046875,4.524313992464542,-0.48400867457985874,-0.9836045021310448
1667080632516702700,16.54870263671875,5.130992184379696,-0.49258945592045783,-0.9183639681965112
1667080632536644600,16.56864453125,5.247043160358071,-0.4336006758570671,-0.5795610158761962
1667080632556587800,16.588587890625,5.320496519103646,-0.4685071540653705,-0.09459726906120776
1667080632576529400,16.608529296875,4.4678164446949955,-0.3643851008117199,0.07235040247235447
1667080632596471600,16.628471435546874,4.231248745501041,-0.1531499957948923,-0.2061009752650745
1667080632616413700,16.64841357421875,4.73954079746604,-0.12750409788489342,-0.28924366111503913
1667080632636355600,16.66835546875,5.134011824461817,0.051288288688659665,-0.4472349411949515
1667080632656297700,16.688297607421877,4.9551142239481205,-0.14998948593735695,-0.5766010335594415
1667080632676240600,16.70824072265625,4.266542177200317,-0.0119949736982584,-0.5171592490315438
1667080632696182800,16.728182861328126,3.981797014814615,0.35250060175061226,-0.21890958516746759
1667080632716124400,16.74812451171875,4.669347901821136,0.40534254962205885,-0.026978315557539462
1667080632736066600,16.768066650390626,4.152477406603098,0.6383937651276588,0.1121107139199972
1667080632756008700,16.7880087890625,3.543923483943939,0.6460667839735746,0.14238076449930667
1667080632775950600,16.80795068359375,2.6212743857741354,0.5692237827897072,-0.2684814253270626
1667080632795893800,16.827893798828125,2.0646604937106368,0.08979133008420467,-0.5886930378913879
1667080632815835600,16.847835693359375,2.2714241524018344,0.01308335345685482,-0.7991843388035893
1667080632835777800,16.86777783203125,1.4512017017446457,0.23188801694512365,-0.700397509098053
1667080632855719700,16.8877197265625,0.014802578464895485,0.8018769388884306,-0.694783760869503
1667080632875661600,16.90766162109375,-0.30977073644027114,0.6190595345824956,-1.0734449320539832
1667080632895604700,16.927604736328124,-1.757851968076825,0.44181028579771514,-0.5724988589376211
1667080632915546600,16.947546630859375,-4.639157930740714,1.0341542474120855,-0.42416006281673907
1667080632935488800,16.96748876953125,-3.4825101070821285,0.45250645185709,-1.151098665098846
1667080632955430700,16.9874306640625,-1.5693908587954937,-0.1508107391923666,0.07753686519954353
1667080632975372500,17.00737255859375,-1.5035089582175016,1.417154616844654,0.14096300665587186
1667080632995314700,17.027314697265624,-2.019807791027427,1.1355506750941275,-0.7444833190619945
1667080633015257600,17.047257568359374,-1.713700107139349,0.847152835419774,-1.581066245150566
1667080633035199700,17.06719970703125,-2.3775053768992422,1.1309259379029273,-1.2494228457286953
1667080633055141600,17.0871416015625,-4.231053807450831,1.9177713118761777,-0.9173596865247935
1667080633075083800,17.107083740234376,-5.479328067666292,1.7112796019941567,-0.5624830032926053
1667080633095025700,17.127025634765626,-4.978462950831651,1.6893471716493367,-0.1680242512565106
1667080633114968600,17.146968505859373,-5.3023377620786425,1.4266373154610394,-0.7577376451715827
1667080633134910500,17.166910400390623,-5.967257715082169,0.6631997050821781,-1.988889651802927
1667080633154852600,17.1868525390625,-3.819465641437471,0.34945056653022766,-1.0279750473205
1667080633174794800,17.206794677734376,-3.160023535323143,0.8118301776260137,0.02310147412419319
1667080633194736600,17.226736572265626,-3.508070080274343,0.4699216970384121,0.2160959890514612
1667080633214678800,17.2466787109375,-3.9029628398135303,0.12330197001993655,-0.4517704657327383
1667080633234620700,17.26662060546875,-3.978035616454482,-0.3017471505910158,-0.5476677845418453
1667080633254563600,17.2865634765625,-4.59013349533081,0.18422376397252083,-0.4035714482963085
1667080633274505700,17.306505615234375,-3.0663822518125174,0.6120791741758584,0.4017717419305816
1667080633294447600,17.326447509765625,-1.8231407250672578,0.5938537816554308,0.9852590644050389
1667080633314389800,17.3463896484375,-2.956092323578894,-0.031816110977530475,-0.20384176162881776
1667080633334331600,17.36633154296875,-2.095118175816536,-0.07019874086380004,-0.3691130061164498
1667080633354274800,17.38627490234375,-0.15842530584931372,0.7432394564807414,-0.15762889477461575
1667080633374216400,17.406216552734374,0.35968028412163255,1.0287772305488585,0.12763707661479712
1667080633394158600,17.42615869140625,0.09004457419291138,0.32973464319109913,0.27526977029293775
1667080633414100700,17.446100830078127,-0.8349018411338329,0.28925884041786193,0.0774137868091464
1667080633434042600,17.466042724609373,0.1372983466684818,0.5016553904294967,-0.5132242476701736
1667080633453984800,17.48598486328125,1.7090210094124079,0.20019173295497894,-0.7390937349781393
1667080633473927700,17.505927734375,2.501189624235034,-0.4805202479422092,-0.1719175323680043
1667080633493869600,17.52586962890625,2.8326816324874757,-0.0587462034791708,0.5961991026725619
1667080633513811700,17.545811767578126,3.8713919357687234,0.07179507014453411,0.7362368842422962
1667080633533753600,17.565753662109376,4.135143994486332,-0.6024667116999626,-0.2955573560401797
1667080633553695700,17.58569580078125,4.0242780199304224,-1.257607028967142,-1.1358695317849516
1667080633573637600,17.6056376953125,4.390468416598439,-1.4709154331266878,-1.0589540498867631
1667080633593581000,17.6255810546875,4.786139467033744,-1.7097352951616047,-1.1462892189905047
1667080633613522700,17.645522705078125,4.698330835199356,-1.584068934097886,-0.6251698341563343
1667080633633464800,17.66546484375,3.4191201694503426,-1.0850281100809573,-0.4511828020378947
1667080633653407000,17.685406982421874,3.15628025714159,-1.1454460461646319,-0.7505170462682843
1667080633673348900,17.705348876953124,4.040778780615329,-1.6815128247618674,-1.1098773046553134
1667080633693291000,17.725291015625,4.227048371201754,-1.9023107078939676,-1.4308844515115022
1667080633713234000,17.74523388671875,4.219133360293507,-1.6988696177542209,-1.396958508773148
1667080633733175800,17.76517578125,4.03747740098238,-0.6894663652390242,-0.5924252101570368
1667080633753117700,17.78511767578125,3.4752246262490747,0.12732698775231838,0.009498489840561524
1667080633773059800,17.805059814453124,2.77566999771595,0.09701894325017929,-0.3815311736628413
1667080633793002000,17.825001953125,2.8818752869844433,-0.639016280940175,-1.2944155414044856
1667080633812945000,17.84494482421875,3.4061505055010315,-0.4568658161103725,-1.3648857926860452
1667080633832887000,17.864886962890626,2.6142612921416757,0.39787411343753337,-0.43204818571805953
1667080633852828700,17.88482861328125,1.1578303114414215,1.2751087833881378,0.594149841992557
1667080633872770800,17.904770751953127,-0.20681553500890731,1.4771137032449244,-0.19214052844643592
1667080633892712700,17.924712646484377,0.5790718075871467,0.8100257585525512,-0.6668827775090932
1667080633912654800,17.94465478515625,1.6411971809864043,0.9770201553046702,-0.26612229498028755
1667080633932597800,17.96459765625,1.5473967613913118,1.5300836614102125,0.18200172227518632
1667080633952540000,17.984539794921876,-0.8083411664664745,1.8582763358563184,-0.0019756839871406555
1667080633972482000,18.00448193359375,-2.1433438620641825,2.212432303598523,-0.43198618986513465
1667080633992423700,18.024423583984376,-2.7295135189577935,1.7626584915757177,-0.9325142932977527
1667080634012365800,18.04436572265625,-3.7233994688674805,0.7172960369288921,-0.8525628777697681
1667080634032308000,18.064307861328125,-4.423760153086484,1.173773145982623,-0.5715390374621376
1667080634052251000,18.0842509765625,-5.726751507395505,1.7444529727995395,-0.5539157390207052
1667080634072193000,18.104193115234374,-6.873991451239585,1.43818045373857,-1.032800421650335
1667080634092135000,18.124135009765624,-6.420491312170029,0.4960521635949611,-1.1800255574408918
1667080634112076800,18.144076904296874,-4.212291531574726,0.24135902512371538,-0.8392281799003481
1667080634132018700,18.164018798828124,-3.3255037281200286,0.39971477286815643,-0.07645221176799387
1667080634151960800,18.1839609375,-5.278334370678663,0.7453595173746347,-0.19509616338163613
1667080634171903700,18.20390380859375,-5.977756897264719,0.9460428332388401,-0.7541396206796169
1667080634191846000,18.223845947265627,-3.299501564118266,0.7403215232074261,-0.3065978054925799
1667080634211788000,18.2437880859375,-2.2049022003546357,0.6732277626216411,0.044841030511725694
1667080634231729700,18.263729736328123,-3.2276901273608205,0.7007996601581573,0.2343029691323638
1667080634251671800,18.283671875,-4.6667897417709225,1.017010220387578,-0.0941009917105548
1667080634271614700,18.30361474609375,-4.660321714800596,1.4229519049465655,-0.5523477590516209
1667080634291556900,18.323556884765626,-3.6530478755295275,1.566802741998434,-0.1959863902196288
1667080634311499000,18.3434990234375,-2.338901797738671,1.296418113398552,0.11874942128211259
1667080634331441000,18.36344091796875,-2.128924583828449,0.8326490937709807,-0.3271042946875095
1667080634351383000,18.383383056640625,-2.335662961947918,0.6319172625899314,-0.5136147082924842
1667080634371324700,18.40332470703125,-0.9332523252487183,0.6738058547705411,0.12091770523190498
1667080634391267800,18.423267822265625,-0.11222352664470672,0.4647264664828777,0.14197802891731262
1667080634411209700,18.443209716796876,0.5822527757108211,-0.10334230105280875,0.08529284962117671
1667080634431151900,18.46315185546875,0.15806991654038427,-0.21072598645091056,-0.2951826775088906
1667080634451094000,18.483093994140624,1.6793090311072765,-0.12246961084902286,-0.33158465497195716
1667080634471036000,18.503035888671874,3.4200428372532126,0.13211129941940306,-0.6834361451640725
1667080634490977800,18.522977783203125,3.5040205126225947,-0.45383039393723007,-0.6564604599550367
1667080634510920700,18.542920654296875,3.2615625863462685,-0.6438754114091396,-0.281871360515058
1667080634530862800,18.56286279296875,3.445662431678176,-0.40217034932672974,0.002585029790829867
1667080634550804700,18.5828046875,3.8664211616188284,-0.5570815095752477,0.1631908945496194
1667080634570747000,18.602746826171874,3.0402421406447884,-1.0688421144336462,-0.41688598016053435
1667080634590689000,18.62268896484375,3.464073702159524,-1.0615116254150867,-0.4475508752763271
1667080634610631400,18.64263134765625,4.279318656665087,-0.8129360930413008,-0.1721954725265503
1667080634630573600,18.662573486328125,4.757881925320625,-0.4154103546500206,-0.24454408490061758
1667080634650515200,18.68251513671875,5.08626398485899,-0.4486065218091011,-0.8135732219010591
1667080634670457300,18.702457275390625,4.8970256075948475,-0.6484639082431792,-0.9551333176672459
1667080634690399500,18.7223994140625,4.912522451934218,-0.09472703292071818,-0.7130874793231486
1667080634710341400,18.74234130859375,4.188106353867053,0.262516379442811,-0.5774550200402736
1667080634730284500,18.762284423828124,3.526878825640678,0.5007540576756,-0.27380466617643834
1667080634750226400,18.782226318359374,3.5960908935546874,0.45140404357314107,-0.19612548816306516
1667080634770168300,18.802168212890624,3.807400232851505,0.41190789948701856,0.008574954388011246
1667080634790110500,18.8221103515625,3.530701014277339,0.8518050451397895,0.03290628083441406
1667080634810052400,18.84205224609375,2.679663446378708,1.2780991973757743,-0.4237836307197809
1667080634829994500,18.861994384765627,2.4359856229186057,1.315008247578144,-0.9593284312695264
1667080634849937400,18.8819375,1.598151819986105,0.2961702272415161,-1.0027698058500885
1667080634869879600,18.901879638671875,2.471183193027973,-0.2954033345222473,-0.749549662540853
1667080634889821200,18.9218212890625,2.043081699109077,-0.14642624049782751,-0.6074973993435502
1667080634909763300,18.941763427734376,-0.033354572591185565,0.7708113540172576,0.03139174808561802
1667080634929705500,18.96170556640625,-1.3499280236594378,-0.1366027656197548,-0.8514914491459726
1667080634949647400,18.9816474609375,-0.8324329668022692,-0.7190086860656738,-1.2702888158857821
1667080634969590500,19.001590576171875,-1.3665972727790474,0.4218155455172062,-0.8422633098125457
1667080634989532400,19.021532470703125,-2.4045444827333093,1.0625298625469206,-0.7698214661970734
1667080635009474600,19.041474609375,-2.0412299337625504,0.8857651824086904,-0.8686272928640246
1667080635029416400,19.06141650390625,-0.6950351052820682,1.11363227327466,-0.4399003605231642
1667080635049358300,19.0813583984375,-0.8968062163829803,1.44532389575243,-0.41787820606827736
1667080635069301200,19.10130126953125,-3.308144012518227,1.7175848396182058,-1.175686870649457
1667080635089243400,19.121243408203124,-4.673578671258688,1.5983844596982002,-0.7040428798630833
1667080635109185500,19.141185546875,-5.035280816596746,1.8205080384761094,0.2669640065014362
1667080635129127400,19.16112744140625,-6.100008481448889,1.315576987376809,-0.4162076425075531
1667080635149069300,19.1810693359375,-7.292015787780285,0.6630716947883367,-1.1668962459504604
1667080635169011500,19.201011474609373,-6.745140614920854,1.058642791980505,-0.9668500589460134
1667080635188954400,19.220954345703124,-5.5649815672934055,1.1026368320077657,-0.3383598481953144
1667080635208896500,19.240896484375,-4.80521504664272,1.161020631915331,0.24769814675105734
1667080635228838400,19.26083837890625,-4.5138393602013585,0.9540566283464431,0.1678331856638193
1667080635248780500,19.280780517578126,-3.3575925185590982,0.5481038378715515,0.07028437332063912
1667080635268722200,19.30072216796875,-2.8951339970082044,0.934968481516838,0.34403730930984017
1667080635288664300,19.320664306640627,-3.670011285290122,1.2597808658748864,0.7076812363654374
1667080635308607200,19.340607177734373,-4.143942217969895,1.0187988573700189,0.1058127828195691
1667080635328549400,19.36054931640625,-3.5130139664173123,0.45796237917542454,-0.6261454011902212
1667080635348491500,19.380491455078126,-1.7898790914565323,0.2939794391989708,-0.28163667497634887
1667080635368433400,19.400433349609376,-1.3592998092472552,0.4654208784878254,0.17668109350800512
1667080635388375300,19.420375244140626,-1.50448160264194,0.8006699011862277,0.27822452844530343
1667080635408318200,19.440318115234376,-2.091060570988804,0.6198316879987716,-0.5545116590872406
1667080635428260400,19.46026025390625,-1.2233230665713548,-0.06014730244874954,-0.616392068938911
1667080635448202500,19.480202392578125,0.1693568880997598,-0.024759178203344345,0.14235299970954657
1667080635468144400,19.500144287109375,1.6359820766866207,0.3640437400281429,0.5970435176074504
1667080635488086500,19.52008642578125,2.34746928120628,0.07760638677179812,-0.21294541606605052
1667080635508028400,19.5400283203125,1.6940161863736807,-0.502574258840084,-0.7424816238507628
1667080635527971600,19.5599716796875,1.3533997914232312,-0.04177753302156925,-0.11503014503065496
1667080635547913200,19.579913330078124,2.040103121689707,0.028335867646336554,0.09179006615336983
1667080635567855400,19.59985546875,3.5159809995293614,-0.5745797568649054,-0.5887035592854023
1667080635587797500,19.619797607421877,5.595106656444073,-1.1880769811451435,-0.7856064798280596
1667080635607739600,19.63973974609375,6.990030152258276,-1.0508341640561818,-0.9413166814997792
1667080635627681500,19.659681640625,6.1851651374697685,-1.2773919258892534,-1.0096104655250906
1667080635647624400,19.67962451171875,6.412092901659012,-0.9128601100832223,-0.8022182996720075
1667080635667566600,19.699566650390626,6.740529906255007,-0.7769488338589667,-0.8766831735476851
1667080635687508500,19.719508544921876,6.615014351838827,-0.9656097034960984,-1.1078308935195207
1667080635707450600,19.73945068359375,6.0943596619069575,-0.4094102374523878,-0.748581694291532
1667080635727392800,19.759392822265625,4.803996026241779,0.006970423534512519,-0.4126484887212515
1667080635747335700,19.779335693359375,3.914246158111095,0.12158113757669925,-0.5147755687654018
1667080635767277800,19.79927783203125,4.096410066944361,-0.13496201267540453,-0.4835328737616539
1667080635787219500,19.819219482421875,4.400137285436689,0.4816366847515106,0.3507262490218505
1667080635807161600,19.83916162109375,2.7226936098098755,0.7570692443907261,-0.0016562610407359897
1667080635827103500,19.859103515625,0.6324256505034863,0.43372927067279815,0.018433464046847075
1667080635847045600,19.879045654296874,-0.6145870653435588,0.16175298896729945,-0.08413341392036527
1667080635866988500,19.898988525390624,-0.2502911041200161,-0.047961190092563624,0.29476503661870956
1667080635886930700,19.9189306640625,0.8105671719528734,0.35554888340532775,0.17952629033867268
1667080635906872600,19.93887255859375,0.4010755398273468,0.26538872000873087,-0.8759048826515674
1667080635926814500,19.958814453125,-0.7519751361221074,0.36260347809195514,-0.6261527077138423
1667080635946756600,19.978756591796873,-0.975967869772762,1.2659545860737562,-0.0996472093945369
1667080635966698800,19.99869873046875,0.09475815871134399,1.8972253674536943,-0.2748786886161193
1667080635986641700,20.0186416015625,0.33923663102984425,0.7430559166073799,-1.5916132119975983
1667080636006583800,20.038583740234376,-0.685669603304565,1.0111135635644197,-0.9814549228817224
1667080636026525400,20.058525390625,-2.907182454459369,1.9860908148646355,-0.3882872968595475
1667080636046467600,20.078467529296876,-4.829336219203472,2.312761978831887,-0.44618689344674345
1667080636066409500,20.098409423828127,-4.960201317954063,1.6288047324031592,-0.9891869053732604
1667080636086352600,20.1183525390625,-4.548119230943918,0.6987059027493,-0.7720601850345731
1667080636106294500,20.13829443359375,-4.706914831410348,0.43480420642793177,-0.613924144455418
1667080636126236700,20.158236572265626,-5.050505858257413,0.5510287854075432,-0.8287339661538601
1667080636146178800,20.1781787109375,-4.621703814853728,1.0032283632725476,-0.38916729456447063
1667080636166120400,20.198120361328126,-5.067943315270543,0.48418636923432345,-0.3803270585700869
1667080636186062600,20.2180625,-4.546150853480398,0.31216742231845857,-0.24617570469044148
1667080636206005500,20.238005615234375,-3.2608760653868316,0.473735702368617,-0.3946711526777595
1667080636225947600,20.25794775390625,-3.2054061070993543,0.16194821927845476,-0.7891629302006214
1667080636245889500,20.2778896484375,-4.581559728252888,0.2844961560606956,-0.779113610677421
1667080636265831700,20.297831787109374,-5.435872372299433,0.6414712728768587,-0.8277046231061219
1667080636285773600,20.317773681640624,-4.931612352329492,1.1632967601537705,-0.6954702818289399
1667080636305716500,20.337716552734374,-3.535551669178903,1.0354261670440434,-0.12628854808267206
1667080636325658600,20.35765869140625,-3.056173577009141,0.9631529579937458,0.44053431104514745
1667080636345600500,20.3776005859375,-2.9968358373776076,0.8737339683532714,-0.049216122057102615
1667080636365542700,20.397542724609377,-3.2958263827368617,0.6009282500863075,-0.846999982945621
1667080636385485600,20.417485595703123,-1.5123578889749942,0.8381406769245863,-0.06341066989256068
1667080636405428700,20.4374287109375,-0.5842015716910361,0.8042237942755222,0.564315260221064
1667080636425370600,20.45737060546875,0.5299602784156799,0.8137596843838691,0.7983613319829106
1667080636445312500,20.4773125,0.6759364370584487,0.48986441487073895,-0.17467063046842812
1667080636465254700,20.497254638671876,1.2475181811511515,-0.09155717071294785,-0.6143532565876841
1667080636485196500,20.517196533203126,2.3958009120464325,0.10228080930113792,-0.03503799563348293
1667080636505138700,20.537138671875,3.480224041971564,0.15747838038802145,0.3039937604740262
1667080636525081600,20.55708154296875,4.078294564539194,0.13068915766179562,0.1813882482856512
1667080636545023700,20.577023681640625,4.545755424422025,0.20673136385679244,-0.1266372519224882
1667080636564965400,20.59696533203125,4.749623800063133,0.4132318415671587,-0.5364131078168749
1667080636584907500,20.616907470703126,5.768022259938717,0.3191653183817863,-0.5963803775236011
1667080636604849200,20.63684912109375,6.444293043518066,0.07873743662834166,-1.076895364768803
1667080636624792000,20.6567919921875,6.23508798302412,-0.17439385935366153,-0.4016515861496329
1667080636644734000,20.67673388671875,4.952346512800455,-0.19340309572815895,-0.21291882032006978
1667080636664675800,20.69667578125,3.6761399973034856,-0.2361784076154232,-0.5675397752255201
1667080636684618000,20.716617919921877,3.7463282167732714,-0.6988333285212517,-0.854215613412857
1667080636704560000,20.73656005859375,3.8912235944420095,-1.6047002187162638,-1.2960156700775027
1667080636724502000,20.756501953125,3.9918151354819535,-2.172206091672182,-1.2233987621560691
1667080636744445200,20.776445068359376,4.241605304342508,-1.5735919637471436,-1.101618010354042
1667080636764387000,20.796386962890626,3.7371465469300746,-0.7846604311496019,-0.5443401014238596
1667080636784329000,20.816328857421876,4.075617454284429,0.0066869304180145256,-0.16927377639357
1667080636804271000,20.83627099609375,4.039258439180255,-0.7454881121903657,-1.1782868240147828
1667080636824213000,20.856212890625,3.312686624383926,-1.5126140556931496,-1.6742548164576292
1667080636844156000,20.876156005859375,2.7197932121932507,-1.147027177876234,-1.4299033315196632
1667080636864098000,20.89609814453125,1.218625410274416,-0.4624029919713735,-0.5002972172861918
1667080636884040200,20.916040283203124,-0.5711126652762294,-0.04904898532927036,-0.5793718865122646
1667080636903981800,20.93598193359375,-0.38066754257082935,-0.29646833340525625,-0.8152969769537448
1667080636923924000,20.955924072265624,1.393088681602478,0.46536593343019483,-0.21676059044003484
1667080636943866000,20.9758662109375,1.8162598795123397,1.3025327968865632,0.7995911660388112
1667080636963809000,20.99580908203125,0.3353472223758697,0.9883405907422304,-0.5712567499220371
1667080636983751200,21.015751220703127,-1.2564435381457209,1.536556072294712,-1.300431148432195
1667080637003693000,21.035693115234373,-1.8356348804593086,2.7127450472474095,-0.34525925232022997
1667080637023635000,21.055635009765624,-2.3654098654359577,2.827501891762018,0.2678659237772226
1667080637043576800,21.075576904296874,-3.534202884918451,1.9978700999855994,-0.7450164030253886
1667080637063520000,21.09552001953125,-4.350048143404722,1.2155670456171035,-1.3894345430091022
1667080637083462000,21.1154619140625,-5.075900411754846,1.9661825838238,0.04116499061379581
1667080637103404000,21.135404052734376,-5.259193616878986,2.6338673253655434,-0.0005214665908366441
1667080637123346200,21.15534619140625,-4.9114077686905855,1.2159902394652367,-1.0189452070381493
1667080637143288000,21.1752880859375,-4.5063343913987275,0.13014672134816646,-1.5671400111287832
1667080637163230000,21.19522998046875,-5.5126019762367005,0.5634814397454262,-0.9381623091220855
1667080637183172900,21.2151728515625,-6.695828010219335,1.4300930088728665,-0.4995928318765014
1667080637203115000,21.235114990234376,-5.841178097042441,1.5742483818292616,-0.5368232229877263
1667080637223057200,21.25505712890625,-4.264052698472142,1.1827630926460027,-0.40989853242598473
1667080637242999000,21.2749990234375,-3.221216255171597,0.7115227142244577,0.14368841303177177
1667080637262941200,21.294941162109374,-3.274682180160284,0.3960416373133659,-0.1736260898515582
1667080637282884000,21.314884033203125,-3.453635310253501,0.5060007261574268,-0.2559472301855683
1667080637302826000,21.334825927734375,-3.0164824948728084,1.1993290275216102,-0.2550660634368658
1667080637322768000,21.354767822265625,-2.9063465881571173,1.7060294263809919,-0.24832561273332684
1667080637342710000,21.3747099609375,-2.423972529041767,0.9639829790771007,-0.8875766157448292
1667080637362652200,21.394652099609374,-1.8488912523955106,0.3664356036007404,-0.7995420662000775
1667080637382594000,21.414593994140624,-1.0567173768758773,1.1882932542443274,-0.3922586116433143
1667080637402537200,21.434537109375,-1.387349845689535,1.5733026254117488,0.023392273764312264
1667080637422478800,21.454478759765625,-1.735046846550703,1.363572664260864,0.021358429849147795
1667080637442421000,21.4744208984375,-0.6419428359113634,0.37496670058071613,-0.19031418980211018
1667080637462363000,21.49436279296875,1.2453244704991577,-0.2233855615377426,-0.117944826900959
1667080637482305000,21.514304931640623,2.0331750759921965,-0.00061608607172966,0.3729901398107409
1667080637502247200,21.5342470703125,1.469192262595892,0.2938321396827698,0.3661240534335375
1667080637522190000,21.554190185546876,0.8971022767201066,0.1853711804419756,-0.660868631786108
1667080637542132200,21.57413232421875,1.5384757883109152,-0.5666922184854746,-1.0735577447786926
1667080637562073900,21.594073974609376,3.5614141324490305,-0.3221305979281664,-0.7519894569084048
1667080637582016000,21.61401611328125,4.184025222033262,-0.144523037225008,-0.6651087535738944
1667080637601958400,21.63395849609375,4.651581943506002,-0.5553647687852382,-0.5657528918087482
1667080637621901600,21.653901611328124,4.396978236883879,-0.9324667278289794,-0.6042541796386242
1667080637641843500,21.673843505859374,4.850743748891353,-0.9283493556380271,-0.5960743803143501
1667080637661785300,21.693785400390624,5.8775032098770135,-0.7741741084486246,-0.2694593304485082
1667080637681727500,21.7137275390625,5.680477247476578,-0.7321575059741735,-0.22797025897949932
1667080637701669400,21.73366943359375,4.620372566249967,-0.4869143328934908,-0.2189502094388008
1667080637721611500,21.753611572265626,4.035090213584899,-0.27211715148091314,0.12878800021559
1667080637741554400,21.773554443359377,4.579572353827953,-0.3646785308003425,-0.09467354916781187
1667080637761496600,21.79349658203125,4.894004213947057,-0.5571943222999572,-0.11179156496822833
1667080637781438500,21.8134384765625,4.144039833125472,-0.9464426462113856,-0.560091212785244
1667080637801380400,21.83338037109375,3.602361644387245,-0.8962778085947036,-0.665310998147726
1667080637821322500,21.853322509765626,3.3377778110206124,-0.20514614049196242,-0.1665890308216214
1667080637841265400,21.873265380859376,3.826658475551009,0.6414198349505662,0.6071504856020212
1667080637861207600,21.89320751953125,4.129684560036659,0.718877753162384,-0.5197922278836369
1667080637881149400,21.9131494140625,2.9495640908539293,0.6542442452102899,-1.7859966970652341
1667080637901091600,21.933091552734375,2.029588595807552,0.2803583256036043,-1.4087363325893878
1667080637921033500,21.953033447265625,1.7302192802637815,0.6273807882040738,-0.8210252914726733
1667080637940975400,21.972975341796875,0.4070454080171883,0.886004836383462,-0.6229834300279617
1667080637960918500,21.99291845703125,-1.1572668323397635,1.6775824995756148,-0.39348201595842835
1667080637980860400,22.0128603515625,-2.383990647265315,1.413827518248558,-0.134241297185421
1667080638000802600,22.032802490234374,-2.9985408877298236,0.4349754713416099,-1.0790627719357608
1667080638020744400,22.052744384765624,-2.071468127898872,0.60955871578753,-0.34981234904732555
1667080638040686300,22.072686279296875,-2.525825760580599,1.2145189978688955,0.18476331420931963
1667080638060629200,22.092629150390625,-3.505684061920643,1.1672282543838024,-0.38188071775287386
1667080638080571400,22.1125712890625,-3.7842555041074752,0.7932166625708341,-0.8252180669873952
1667080638100513500,22.132513427734374,-4.0822175832018255,1.0748264495402573,-0.2953679344153032
1667080638120455400,22.152455322265624,-4.325127052637934,2.2173007864177228,0.40301352215260267
1667080638140397600,22.1723974609375,-5.614307031476497,1.7287673278898,-0.49502654687426983
1667080638160339700,22.192339599609376,-5.66613074221611,1.9371154792934655,-1.1646182910811156
1667080638180282600,22.21228271484375,-6.468645979008079,0.5901882448852062,-0.7596925786316394
1667080638200224500,22.232224609375,-4.868798461019993,2.093082870596647,0.14459960959255694
1667080638220166400,22.25216650390625,-4.579545173560082,2.0982225715726615,0.3851210513809696
1667080638240108500,22.272108642578125,-4.567919033174216,2.1674188573956488,0.578336807843484
1667080638260050400,22.292050537109375,-5.755872387939691,1.7633154941797256,0.08235533486455679
1667080638279992600,22.31199267578125,-4.2411061226487154,1.352189100459218,-0.06981792485266923
1667080638299935500,22.331935546875,-3.1311744574576617,0.45896308065056796,0.2420078078886494
1667080638319877400,22.35187744140625,-3.322715850967169,0.8102420316517353,-0.14930354949980973
1667080638339819500,22.371819580078125,-3.7946316444322465,1.0302075556129215,0.1364993235115893
1667080638359761400,22.391761474609375,-3.141449767756462,1.1405284635066986,0.4027490259975195
1667080638379703600,22.41170361328125,-2.045070534838736,0.9601707273125648,0.3313827026590705
1667080638399646500,22.431646484375,-1.5521774197965859,1.1112304728299378,0.2621943444142118
1667080638419588600,22.451588623046874,-2.0076146644085644,1.0450684401363133,-0.18472674505859613
1667080638439530500,22.471530517578124,-1.556188262873143,0.6308703838855028,-0.628221622942388
1667080638459472400,22.491472412109374,-0.479560170738399,0.40960897489488124,-1.0669818735197185
1667080638479414500,22.51141455078125,1.5874750892795622,-0.17836042489707468,-0.9869026668936014
1667080638499356400,22.5313564453125,2.7151860106587407,-0.6758645408660173,-0.2718988325551152
1667080638519299600,22.551299560546877,3.714460083347559,-0.0934720644235611,0.17838439029455183
1667080638539241500,22.571241455078123,4.0711458618283265,-0.3453869703531265,-0.5350782790165394
1667080638559183600,22.59118359375,4.499865779906511,-0.925056159311533,-1.3819307432502508
1667080638579125500,22.61112548828125,5.024537304264307,-1.084635311371088,-1.5333713047787547
1667080638599067600,22.631067626953126,4.977929866868258,-0.9097750035494565,-1.7162115054383873
1667080638619010600,22.651010498046876,4.808168343490362,-0.4085246867895126,-1.786656183887273
1667080638638952400,22.670952392578126,4.787049567615986,-0.16182839229106902,-1.6643831185236573
1667080638658894600,22.69089453125,4.398685625323653,0.1290425594985485,-1.5496180907025932
1667080638678836500,22.71083642578125,4.181207826524973,0.34936347276866436,-0.8357526127442717
1667080638698778600,22.730778564453125,4.449641905578971,0.7424070973098278,-0.644257469529286
1667080638718720800,22.750720703125,4.781555061852932,0.6969505835145712,-0.723452513732016
1667080638738663700,22.77066357421875,4.705599364897608,0.2983633533716202,-0.7239861822172999
1667080638758605800,22.790605712890624,4.177006283181906,-0.5041004454940557,-0.8671247793465853
1667080638778547500,22.81054736328125,4.302828711590171,-1.0237959350049495,-0.808737472307682
1667080638798489600,22.830489501953124,4.767043721419572,-0.5506956079304218,-0.4291627664748579
1667080638818431500,22.850431396484375,4.381467364019155,-0.21241174758076667,-0.3582612841691822
1667080638838373600,22.87037353515625,3.6714813578426835,-0.4922749831438064,-1.3887828011021017
1667080638858316500,22.890316650390623,2.823049588528275,-1.7757435985982417,-1.4676432795882224
1667080638878258700,22.9102587890625,1.9555062915086745,-1.143925704729557,-1.0738356849372386
1667080638898200600,22.93020068359375,1.5197311942219733,0.07843640785515307,-0.05637647867314517
1667080638918142500,22.950142578125,1.0651835188608616,1.137349833470583,0.39280711237154897
1667080638938084600,22.970084716796876,0.5149439110696316,1.6963772164165973,-0.1639832322373986
1667080638958027500,22.990027587890626,-0.7242015785336494,0.9778700501322746,-0.9096846949174999
1667080638977969700,23.0099697265625,-0.659707625182718,1.1606862853944302,-0.7820007834862918
1667080638997911800,23.029911865234375,-1.6181401305258274,2.278078787985444,1.1356176028504967
1667080639017853400,23.049853515625,-3.2843232842087744,3.3002941758006807,0.3492699492663145
1667080639037795600,23.069795654296875,-3.9497725217834114,2.2792402329802512,-0.8885871810268611
1667080639057737500,23.089737548828126,-3.262790959097445,0.77412676217556,-1.345646839208901
1667080639077680600,23.1096806640625,-4.6673666648760435,1.0167927782446144,-0.7477293883111328
1667080639097622500,23.12962255859375,-6.135691204726696,1.317214817711711,-0.723043567604944
1667080639117564700,23.149564697265625,-5.999940672022104,1.3201561318606136,-1.205718655493483
1667080639137506800,23.1695068359375,-4.837179041658342,0.9569137713432312,-0.31960831290893255
1667080639157448400,23.189448486328125,-4.9735915454030035,0.8792337348133326,-0.4144525424685329
1667080639177390600,23.209390625,-5.407964374676347,0.2981085018277168,-0.809699887599051
1667080639197333500,23.22933349609375,-4.771115793164074,0.5545476071834564,-0.4904804278772324
1667080639217275600,23.249275634765624,-4.193560235358774,1.1624380974978208,0.25518742479421197
1667080639237217800,23.2692177734375,-3.8684076592609284,1.0457020618647337,0.539679196940735
1667080639257159700,23.28915966796875,-4.115479216812551,0.14689561157524586,-0.2897392443459481
1667080639277101600,23.3091015625,-3.1386361716404556,-0.45214638637304305,-0.7125337178979069
1667080639297044500,23.32904443359375,-3.5641780442044135,-0.025732407149672506,-0.6240864228338002
1667080639316986600,23.348986572265623,-3.895473360840976,0.9610708910226822,-0.4607724316274747
1667080639336928500,23.368928466796874,-3.0520778321281075,0.8201508467257023,-0.19737612754497677
1667080639356870700,23.38887060546875,-1.7881747717566787,0.7677537200123071,-0.09130516871325671
1667080639376812800,23.408812744140626,-1.1017404676899314,0.8612135094761848,-0.21572222383562475
1667080639396754400,23.42875439453125,-1.1464894177377223,0.598097995096445,-0.9150286862939596
1667080639416697600,23.448697509765626,-1.5637334175556896,0.8971241962909698,-0.6071911098733545
1667080639436639500,23.468639404296876,-2.0705090736083687,1.6675468432515859,-0.21259439240498468
1667080639456581600,23.48858154296875,-1.3706119152478873,1.8317261825829743,0.8106970819428563
1667080639476523500,23.5085234375,0.31838556618094443,1.1617127058327197,0.8204574284568429
1667080639496465700,23.528465576171875,2.4066157360494134,-0.35631636064648625,-0.40379181304872036
1667080639516408600,23.54840869140625,4.254770490863919,-1.4951082096189259,-0.9034630439236759
1667080639536350500,23.5683505859375,4.068261830824613,-1.6401953104674816,-1.1296207005232572
1667080639556292600,23.588292724609374,3.910956468915939,-1.4519617263317108,-0.5081956058531999
1667080639576234500,23.608234375,3.7596716824710366,-1.0512053354561328,-0.3580404079601168
1667080639596176100,23.628176025390626,4.283941640290617,-1.5520049858391285,-0.7340870127320289
1667080639616118300,23.6481181640625,5.170133523678779,-2.0400515376329422,-0.6829702812179923
1667080639636061200,23.668061279296875,5.6459752584159375,-1.970958712184429,-0.5924366083338857
1667080639656003000,23.688003173828125,5.542548786211014,-1.2680132721692323,-0.23605973140550776
1667080639675945000,23.707945068359376,5.049311095514893,-0.09733341602683067,0.1668096878349781
1667080639695887000,23.72788720703125,4.816426468747854,0.5487994189202785,0.18827159632490947
1667080639715829200,23.747829345703124,4.696255782490969,0.23197686427235603,-0.026297639816999435
1667080639735771100,23.767771240234374,5.035354466354847,-0.6199795720368624,-0.7781377513825893
1667080639755714300,23.78771435546875,5.412383360162377,-1.0150094019591809,-1.0273995124548674
1667080639775656200,23.80765625,5.570558490642905,-0.6670581340759992,-0.8679071618959308
1667080639795598000,23.82759814453125,5.382136105936765,0.2562467976540327,-0.4741676275124773
1667080639815540000,23.8475400390625,4.159907848864793,0.9151385764092207,-0.3696574151914567
1667080639835482000,23.867482177734374,2.7166391320765015,0.8726075946718453,-0.7972907801419497
1667080639855424300,23.88742431640625,1.9551507560692727,1.0608224741071461,-0.6927054932907223
1667080639875367200,23.9073671875,1.1816425641834736,0.800266581082344,-0.902286109098792
1667080639895309300,23.927309326171876,0.5172656320154667,-0.13858663291335105,-1.498310512791574
1667080639915251000,23.9472509765625,0.1513616510733962,-0.037252164551615716,-1.2729089352563023
1667080639935192000,23.967192138671876,0.32917350217700003,0.8216945690363645,-0.8861480442464351
1667080639955134200,23.98713427734375,-0.15960136389136315,2.3692449135541915,0.34368747295886276
1667080639975076000,24.007076171875,-1.2741359928332268,2.8076906913548707,0.09744042006526142
1667080639995019300,24.027019287109376,-1.5759353120028972,2.508482119330764,-1.753116756248474
1667080640014961000,24.0469609375,-1.1221534333825112,1.6353765120089052,-0.7160492517381906
1667080640034903000,24.066903076171876,-3.666737962707877,0.8030781313717364,-1.0526789151400326
1667080640054845200,24.08684521484375,-6.427468749967217,0.9863239902228116,-1.6620362631365655
1667080640074787000,24.106787109375,-5.889239824900031,2.5586674152135847,-1.3105448384284972
1667080640094729200,24.126729248046875,-4.253916212122142,3.0015304249346255,-0.4676941571820527
1667080640114672000,24.146672119140625,-3.4407451412811874,1.4913719457000494,-0.3669355890121311
1667080640134614000,24.166614013671875,-4.801461539328098,-0.6614256811469793,-1.3005568206384777
1667080640154556200,24.18655615234375,-5.759039912059903,-0.5834557217597961,-1.925766110022366
1667080640174498000,24.206498046875,-4.990592949086428,1.1499848586380481,-1.30740654040277
1667080640194440200,24.226440185546874,-4.660567213994264,1.5591203708022832,-1.2388624348782002
1667080640214383000,24.246383056640624,-4.728158987230062,0.723629916125536,-0.7928872844859958
1667080640234325200,24.2663251953125,-4.932714760613441,0.2887666729867458,-1.0491904885023833
1667080640254267100,24.28626708984375,-4.944144501644373,0.07659107224941253,-1.2226856454506516
1667080640274209000,24.306208984375,-3.932726986697316,0.4236959524363279,-1.4556331083208323
1667080640294151200,24.326151123046873,-3.0549799833104014,0.8973726180940866,-0.9504824961867183
1667080640314093000,24.346093017578124,-2.6017978241488335,1.455596283441782,-0.22220709234289823
1667080640334036200,24.3660361328125,-2.345793603079021,1.433216109329462,-0.14988810792211443
1667080640353978000,24.38597802734375,-2.4747870627388355,1.0409627583831549,-0.036636041947267946
1667080640373921300,24.40592138671875,-1.6719769346535205,0.5460194328129291,0.8288178450450301
1667080640393863200,24.42586328125,-0.649089346665144,0.4242798898041248,1.3425740076348185
1667080640413805000,24.44580517578125,-0.8434113108038902,0.30519056904315944,0.5127966699078679
1667080640433748000,24.465748046875,-1.4964914806708693,-0.13556582378745077,-0.20288078937586396
1667080640453690000,24.485690185546876,-0.49382367389053106,0.09160100985467433,-0.1918170321131125
1667080640473632000,24.505632080078126,1.7723640391625464,-0.1552805780827999,0.33122721983641384
1667080640493574100,24.52557421875,3.4260116825297473,-0.22077391773462293,0.6546773759305476
1667080640513516300,24.545516357421874,3.4536242043375966,-0.9786813665151596,0.34578824463039637
1667080640533459200,24.565459228515625,3.4926422095179555,-1.41512924849689,-0.09118218165440484
1667080640553401000,24.585401123046875,3.690736677932739,-0.8405418928474188,-0.10548369699567556
1667080640573343000,24.605343017578125,4.553507353723049,-0.7327204005539417,-0.3843231424689293
1667080640593285000,24.62528515625,5.010120071855187,-1.6665864737868308,-0.7254162150204181
1667080640613227500,24.6452275390625,4.685462001276016,-1.6713205165714025,-0.7019982222929596
1667080640633169700,24.665169677734376,4.4967537853658195,-1.0412696323752402,-0.41401597768217324
1667080640653112600,24.685112548828126,4.418029792740941,-0.308335881331563,-0.31906770322620864
1667080640673054700,24.7050546875,4.642342990517616,0.4338841689735651,-0.6658838295996189
1667080640692996900,24.724996826171875,5.377471036735177,0.3941425256937742,-0.7009434525430203
1667080640712938500,24.7449384765625,5.721600700503587,-0.107056937661767,-0.6043237012108787
1667080640732880600,24.764880615234375,5.42269257273078,-0.30749183172285555,-0.5674675867721438
1667080640752822500,24.784822509765625,4.506761969161033,-0.34735505555570123,-0.33925296111013736
1667080640772765700,24.804765625,3.962518313848972,0.27408114503026004,-0.3585416354805231
1667080640792707600,24.82470751953125,3.926930283117294,0.8111649917155503,-0.08951503389347344
1667080640812649700,24.844649658203124,4.1701241224527354,1.149737021356821,-0.17013737095296383
1667080640832591600,24.864591552734375,3.9309892031192777,0.4490718012332916,-0.9433264138869941
